timestamp,time_sec,true_latitude,true_longitude,true_speed_mps,true_heading_deg,gnss_latitude,gnss_longitude,gnss_status,accel_x,accel_y,accel_z,gyro_x,gyro_y,gyro_z,heading_deg,speed_kmh
2025-01-15T06:00:00.000Z,0.0,12.9716,77.5946,0.0,0.0,12.9715993,77.5945991,ON,-0.00557,0.0351,9.79724,-0.002995,0.000665,-0.000535,0.0,0.0
2025-01-15T06:00:00.100Z,0.1,12.9716001,77.5946,0.139,0.0,12.971599,77.5946006,ON,1.40161,0.05818,9.87566,0.000221,-0.001477,-0.002029,0.0,0.5004
2025-01-15T06:00:00.200Z,0.2,12.9716004,77.5946,0.278,0.0,12.9716016,77.5946066,ON,1.39208,-0.00532,9.86318,-0.002907,-0.000625,0.000981,0.0,1.0008
2025-01-15T06:00:00.300Z,0.3,12.9716007,77.5946,0.417,0.0,12.9716051,77.5945988,ON,1.40883,0.01241,9.88823,-0.002226,0.001137,-0.003029,0.0,1.5012
2025-01-15T06:00:00.400Z,0.4,12.9716012,77.5946,0.556,0.0,12.9715881,77.594597,ON,1.34421,0.0438,9.87643,-0.002438,0.001695,-0.002004,0.0,2.0016
2025-01-15T06:00:00.500Z,0.5,12.9716019,77.5946,0.695,0.0,12.9716014,77.5945985,ON,1.39572,0.04093,9.87384,0.0007,0.0013,0.000957,0.0,2.502
2025-01-15T06:00:00.600Z,0.6,12.9716026,77.5946,0.834,0.0,12.9715995,77.5945964,ON,1.3665,0.02497,9.78499,0.004672,-0.001639,-0.002198,0.0,3.0024
2025-01-15T06:00:00.700Z,0.7,12.9716035,77.5946,0.973,0.0,12.9716073,77.5946071,ON,1.41528,0.04179,9.95263,-0.000188,-0.002846,-0.001064,0.0,3.5028
2025-01-15T06:00:00.800Z,0.8,12.9716045,77.5946,1.112,0.0,12.9716093,77.5945928,ON,1.39168,0.01266,9.77844,0.001447,0.001162,0.004643,0.0,4.0032
2025-01-15T06:00:00.900Z,0.9,12.9716056,77.5946,1.251,0.0,12.9716087,77.594597,ON,1.36191,-0.04158,9.90523,-0.001134,-0.000141,0.001499,0.0,4.5036
2025-01-15T06:00:01.000Z,1.0,12.9716069,77.5946,1.39,0.0,12.9716033,77.5945985,ON,1.29794,-0.05412,9.75323,0.000832,0.002387,-3.7e-05,0.0,5.004
2025-01-15T06:00:01.100Z,1.1,12.9716082,77.5946,1.529,0.0,12.9716095,77.5946008,ON,1.44424,0.04467,9.83737,-0.002022,0.001807,0.000762,0.0,5.5044
2025-01-15T06:00:01.199Z,1.2,12.9716097,77.5946,1.668,0.0,12.9716159,77.5945999,ON,1.48766,-0.01794,9.96931,0.00023,-0.001033,-0.002257,0.0,6.0048
2025-01-15T06:00:01.300Z,1.3,12.9716114,77.5946,1.807,0.0,12.9716106,77.5946071,ON,1.43082,0.03444,9.57241,0.001422,0.001112,-0.0011,0.0,6.5052
2025-01-15T06:00:01.399Z,1.4,12.9716131,77.5946,1.946,0.0,12.97161,77.5946,ON,1.47624,-0.05276,9.76722,0.002724,-0.000892,-0.000729,0.0,7.0056
2025-01-15T06:00:01.500Z,1.5,12.971615,77.5946,2.085,0.0,12.9716155,77.5945938,ON,1.401,-0.06048,9.89852,6e-06,0.004567,0.000562,0.0,7.506
2025-01-15T06:00:01.600Z,1.6,12.971617,77.5946,2.224,0.0,12.9716238,77.5945935,ON,1.38389,0.01616,9.98457,-0.003362,0.001981,0.001183,0.0,8.0064
2025-01-15T06:00:01.700Z,1.7,12.9716191,77.5946,2.363,0.0,12.9716268,77.5946036,ON,1.3926,-0.02608,9.68518,0.000391,-0.000383,0.004041,0.0,8.5068
2025-01-15T06:00:01.800Z,1.8,12.9716214,77.5946,2.502,0.0,12.9716183,77.5946016,ON,1.31155,-0.01977,9.83611,0.001648,0.002896,-8.8e-05,0.0,9.0072
2025-01-15T06:00:01.899Z,1.9,12.9716237,77.5946,2.641,0.0,12.9716181,77.5946023,ON,1.41585,0.02458,9.73997,0.002267,0.000176,0.0014,0.0,9.5076
2025-01-15T06:00:02.000Z,2.0,12.9716262,77.5946,2.78,0.0,12.9716326,77.594603,ON,1.40433,0.10764,9.83437,-0.000592,0.000224,0.002966,0.0,10.008
2025-01-15T06:00:02.100Z,2.1,12.9716288,77.5946,2.919,0.0,12.9716294,77.5946026,ON,1.44979,-0.02564,9.63734,0.000599,0.000459,-0.001216,0.0,10.5084
2025-01-15T06:00:02.200Z,2.2,12.9716316,77.5946,3.058,0.0,12.9716359,77.594603,ON,1.34025,0.02591,9.79039,-0.002966,0.000906,-9e-05,0.0,11.0088
2025-01-15T06:00:02.299Z,2.3,12.9716345,77.5946,3.197,0.0,12.9716307,77.5946026,ON,1.4144,-0.02888,9.85004,0.00203,-0.001425,0.000762,0.0,11.5092
2025-01-15T06:00:02.399Z,2.4,12.9716375,77.5946,3.336,0.0,12.9716375,77.5946113,ON,1.29688,0.03476,9.77938,-0.0002,0.003803,-1.7e-05,0.0,12.0096
2025-01-15T06:00:02.500Z,2.5,12.9716406,77.5946,3.475,0.0,12.9716518,77.5945978,ON,1.40753,-0.02454,9.74093,0.000125,-0.000565,0.000405,0.0,12.51
2025-01-15T06:00:02.600Z,2.6,12.9716438,77.5946,3.614,0.0,12.9716333,77.59461,ON,1.38165,0.08715,9.70929,0.000585,0.00633,-0.001739,0.0,13.0104
2025-01-15T06:00:02.700Z,2.7,12.9716472,77.5946,3.753,0.0,12.9716397,77.5945973,ON,1.41362,0.03467,9.93904,-0.000514,-0.003205,-0.00087,0.0,13.5108
2025-01-15T06:00:02.799Z,2.8,12.9716507,77.5946,3.892,0.0,12.9716569,77.5946023,ON,1.29215,-0.00175,9.94982,0.004253,0.001123,0.000619,0.0,14.0112
2025-01-15T06:00:02.899Z,2.9,12.9716543,77.5946,4.031,0.0,12.9716481,77.5945958,ON,1.39235,0.02516,9.86802,-0.000956,-0.002304,-0.001556,0.0,14.5116
2025-01-15T06:00:03.000Z,3.0,12.9716581,77.5946,4.17,0.0,12.9716523,77.5946032,ON,1.27439,-0.01666,9.85499,0.003044,0.000143,0.002003,0.0,15.012
2025-01-15T06:00:03.100Z,3.1,12.9716619,77.5946,4.309,0.0,12.9716599,77.5945963,ON,1.35628,0.07637,9.90942,0.000975,0.006661,-6.5e-05,0.0,15.5124
2025-01-15T06:00:03.200Z,3.2,12.9716659,77.5946,4.448,0.0,12.971669,77.5946015,ON,1.37891,0.11581,9.96066,-0.002799,-0.0008,0.000857,0.0,16.0128
2025-01-15T06:00:03.299Z,3.3,12.97167,77.5946,4.587,0.0,12.971674,77.5945933,ON,1.27722,-0.09532,9.80289,-0.000206,0.00069,-0.001539,0.0,16.5132
2025-01-15T06:00:03.399Z,3.4,12.9716743,77.5946,4.726,0.0,12.9716682,77.5945899,ON,1.40646,0.0185,9.9093,0.001582,-0.000381,0.002699,0.0,17.0136
2025-01-15T06:00:03.500Z,3.5,12.9716787,77.5946,4.865,0.0,12.971678,77.5945967,ON,1.36397,-0.02924,9.59343,0.000313,0.0005,-0.000725,0.0,17.514
2025-01-15T06:00:03.600Z,3.6,12.9716832,77.5946,5.004,0.0,12.9716796,77.5946019,ON,1.47584,0.00191,9.75924,-0.001183,-0.00014,-0.00253,0.0,18.0144
2025-01-15T06:00:03.700Z,3.7,12.9716878,77.5946,5.143,0.0,12.9716872,77.5946003,ON,1.48223,0.04717,9.9134,-0.001426,0.00134,-0.002279,0.0,18.5148
2025-01-15T06:00:03.799Z,3.8,12.9716925,77.5946,5.282,0.0,12.9716941,77.5946021,ON,1.35168,0.09997,9.86674,-0.003805,0.001106,-0.000815,0.0,19.0152
2025-01-15T06:00:03.899Z,3.9,12.9716974,77.5946,5.421,0.0,12.9716974,77.5946023,ON,1.40953,-0.10196,9.69417,0.001545,0.002602,0.003806,0.0,19.5156
2025-01-15T06:00:04.000Z,4.0,12.9717024,77.5946,5.56,0.0,12.9717114,77.5945897,ON,1.42847,-0.09581,9.97136,0.000507,-0.002282,0.00402,0.0,20.016
2025-01-15T06:00:04.099Z,4.1,12.9717075,77.5946,5.699,0.0,12.9717107,77.5945905,ON,1.40467,-0.03656,9.82113,-0.00093,0.002747,-0.002847,0.0,20.5164
2025-01-15T06:00:04.200Z,4.2,12.9717128,77.5946,5.838,0.0,12.9717143,77.5946091,ON,1.34865,0.01053,9.8302,-0.001379,0.001296,0.000194,0.0,21.0168
2025-01-15T06:00:04.299Z,4.3,12.9717181,77.5946,5.977,0.0,12.9717134,77.5946088,ON,1.42958,-0.00836,9.74633,-0.001569,0.002462,-0.000293,0.0,21.5172
2025-01-15T06:00:04.400Z,4.4,12.9717236,77.5946,6.116,0.0,12.9717259,77.5945991,ON,1.42082,-0.0058,9.88639,-0.000366,0.001659,0.001345,0.0,22.0176
2025-01-15T06:00:04.500Z,4.5,12.9717292,77.5946,6.255,0.0,12.9717287,77.5945957,ON,1.34299,-0.03704,9.71155,0.001732,-9.3e-05,0.00314,0.0,22.518
2025-01-15T06:00:04.599Z,4.6,12.971735,77.5946,6.394,0.0,12.9717464,77.5946001,ON,1.3126,-0.01907,9.80247,-0.002977,-0.000501,0.000574,0.0,23.0184
2025-01-15T06:00:04.700Z,4.7,12.9717408,77.5946,6.533,0.0,12.9717386,77.5945962,ON,1.35206,0.08933,9.79404,-0.00166,-0.000746,0.001909,0.0,23.5188
2025-01-15T06:00:04.799Z,4.8,12.9717468,77.5946,6.672,0.0,12.9717434,77.5946024,ON,1.42639,0.03746,9.94997,-0.001101,0.002265,-0.001586,0.0,24.0192
2025-01-15T06:00:04.900Z,4.9,12.971753,77.5946,6.811,0.0,12.971751,77.594606,ON,1.43112,0.0001,9.69086,0.001123,-0.001261,-0.001848,0.0,24.5196
2025-01-15T06:00:05.000Z,5.0,12.9717592,77.5946,6.95,0.0,12.971756,77.5946012,ON,1.28395,0.01804,9.82739,-0.001169,0.002074,0.001223,0.0,25.02
2025-01-15T06:00:05.099Z,5.1,12.9717656,77.5946,7.089,0.0,12.9717625,77.5945966,ON,1.42476,-0.0758,9.77674,-0.001262,0.00014,0.000422,0.0,25.5204
2025-01-15T06:00:05.200Z,5.2,12.9717721,77.5946,7.228,0.0,12.9717722,77.5946057,ON,1.4014,-0.01575,9.68891,0.001444,0.001056,0.002902,0.0,26.0208
2025-01-15T06:00:05.299Z,5.3,12.9717787,77.5946,7.367,0.0,12.9717749,77.5946001,ON,1.38707,-0.00438,9.81104,-0.003429,0.00165,0.001306,0.0,26.5212
2025-01-15T06:00:05.400Z,5.4,12.9717854,77.5946,7.506,0.0,12.9717911,77.5946112,ON,1.37405,-0.00181,9.81098,0.003884,-0.003462,0.000972,0.0,27.0216
2025-01-15T06:00:05.500Z,5.5,12.9717923,77.5946,7.645,0.0,12.9717849,77.5945871,ON,1.28896,-0.06909,9.9169,-0.001737,-0.000455,-0.002327,0.0,27.522
2025-01-15T06:00:05.599Z,5.6,12.9717993,77.5946,7.784,0.0,12.9718023,77.5945945,ON,1.45588,-0.04966,9.73352,0.000245,4.9e-05,0.002849,0.0,28.0224
2025-01-15T06:00:05.700Z,5.7,12.9718064,77.5946,7.923,0.0,12.971807,77.594594,ON,1.36198,-0.02864,9.8825,0.000768,-0.000239,0.001739,0.0,28.5228
2025-01-15T06:00:05.799Z,5.8,12.9718136,77.5946,8.062,0.0,12.971811,77.5945993,ON,1.39904,0.07641,9.80015,-0.000702,-0.002092,0.001372,0.0,29.0232
2025-01-15T06:00:05.900Z,5.9,12.971821,77.5946,8.201,0.0,12.9718181,77.5946017,ON,1.29492,0.05216,9.67681,-0.001555,0.002117,-0.002669,0.0,29.5236
2025-01-15T06:00:06.000Z,6.0,12.9718285,77.5946,8.34,0.0,12.9718281,77.5946004,ON,1.34007,0.06715,9.95988,-0.003943,-0.002898,0.001616,0.0,30.024
2025-01-15T06:00:06.099Z,6.1,12.9718361,77.5946,8.479,0.0,12.9718296,77.5945981,ON,1.39648,0.03459,9.78767,0.00019,-0.001553,0.002585,0.0,30.5244
2025-01-15T06:00:06.200Z,6.2,12.9718439,77.5946,8.618,0.0,12.9718414,77.5946017,ON,1.36442,0.00532,9.79318,-0.000325,-0.002028,0.001593,0.0,31.0248
2025-01-15T06:00:06.299Z,6.3,12.9718517,77.5946,8.757,0.0,12.9718588,77.5946012,ON,1.42662,0.0419,9.9028,0.000607,0.000425,0.001728,0.0,31.5252
2025-01-15T06:00:06.400Z,6.4,12.9718597,77.5946,8.896,0.0,12.9718601,77.5945951,ON,1.39119,-0.09442,9.80941,0.000827,0.002472,0.000303,0.0,32.0256
2025-01-15T06:00:06.500Z,6.5,12.9718678,77.5946,9.035,0.0,12.9718725,77.5946,ON,1.33883,-0.07057,9.71303,-0.002732,0.001267,-0.000415,0.0,32.526
2025-01-15T06:00:06.599Z,6.6,12.9718761,77.5946,9.174,0.0,12.9718789,77.5946004,ON,1.4422,0.05301,9.74547,-0.000549,-0.001066,-0.003243,0.0,33.0264
2025-01-15T06:00:06.700Z,6.7,12.9718844,77.5946,9.313,0.0,12.9718878,77.5946059,ON,1.38968,-0.02466,9.91909,-0.00469,0.000355,0.000287,0.0,33.5268
2025-01-15T06:00:06.799Z,6.8,12.9718929,77.5946,9.452,0.0,12.9718901,77.594607,ON,1.43854,-0.01306,9.80133,-0.000776,-0.001024,-0.002616,0.0,34.0272
2025-01-15T06:00:06.900Z,6.9,12.9719016,77.5946,9.591,0.0,12.9719085,77.5946051,ON,1.42991,-0.05472,10.01808,0.00396,0.000376,-0.001808,0.0,34.5276
2025-01-15T06:00:07.000Z,7.0,12.9719103,77.5946,9.73,0.0,12.971906,77.5946021,ON,1.34435,-0.00171,9.91886,-0.003014,0.004011,0.003133,0.0,35.028
2025-01-15T06:00:07.099Z,7.1,12.9719192,77.5946,9.869,0.0,12.971913,77.5945929,ON,1.37583,-0.05156,9.78363,-0.005162,-0.000457,0.003606,0.0,35.5284
2025-01-15T06:00:07.200Z,7.2,12.9719281,77.5946,10.008,0.0,12.9719226,77.5945986,ON,1.31552,0.03191,9.78747,0.003881,0.000414,-0.000744,0.0,36.0288
2025-01-15T06:00:07.299Z,7.3,12.9719373,77.5946,10.147,0.0,12.97194,77.5945975,ON,1.32303,0.0151,9.79251,0.000333,0.000751,-0.001021,0.0,36.5292
2025-01-15T06:00:07.400Z,7.4,12.9719465,77.5946,10.286,0.0,12.9719486,77.5946087,ON,1.33461,0.08687,9.78572,-0.001533,0.004854,0.00031,0.0,37.0296
2025-01-15T06:00:07.500Z,7.5,12.9719559,77.5946,10.425,0.0,12.9719627,77.5946041,ON,1.30597,0.00604,9.75747,-0.002684,-0.003543,0.000205,0.0,37.53
2025-01-15T06:00:07.599Z,7.6,12.9719654,77.5946,10.564,0.0,12.9719683,77.594602,ON,1.37471,-0.03993,9.71131,-0.00111,-0.002066,-0.000407,0.0,38.0304
2025-01-15T06:00:07.700Z,7.7,12.971975,77.5946,10.703,0.0,12.9719749,77.5945955,ON,1.3784,-0.03802,9.80955,0.001014,0.000356,0.000944,0.0,38.5308
2025-01-15T06:00:07.799Z,7.8,12.9719847,77.5946,10.842,0.0,12.9719765,77.5945981,ON,1.40384,0.03206,9.6502,0.000318,0.002413,-0.000357,0.0,39.0312
2025-01-15T06:00:07.900Z,7.9,12.9719946,77.5946,10.981,0.0,12.9719941,77.5946023,ON,1.40236,0.03373,9.81724,0.000305,-0.001565,-0.000341,0.0,39.5316
2025-01-15T06:00:08.000Z,8.0,12.9720046,77.5946,11.12,0.0,12.9720108,77.594599,ON,1.38157,-0.02458,9.88872,-0.001709,0.001821,-0.001874,0.0,40.032
2025-01-15T06:00:08.099Z,8.1,12.9720147,77.5946,11.259,0.0,12.9720094,77.594601,ON,1.39651,0.01488,9.91625,-0.000825,0.000886,-0.00182,0.0,40.5324
2025-01-15T06:00:08.199Z,8.2,12.9720249,77.5946,11.398,0.0,12.9720312,77.5946032,ON,1.41683,0.00939,9.73144,-0.000655,0.001004,-3.8e-05,0.0,41.0328
2025-01-15T06:00:08.300Z,8.3,12.9720353,77.5946,11.537,0.0,12.9720359,77.5945932,ON,1.39905,-0.0346,9.70167,-0.000309,-0.003713,0.001397,0.0,41.5332
2025-01-15T06:00:08.400Z,8.4,12.9720458,77.5946,11.676,0.0,12.97205,77.5945997,ON,1.34031,-0.04727,9.79489,-0.004847,0.000361,0.001329,0.0,42.0336
2025-01-15T06:00:08.500Z,8.5,12.9720564,77.5946,11.815,0.0,12.9720548,77.5945975,ON,1.3991,0.01753,9.91942,3.7e-05,-0.00138,-0.000923,0.0,42.534
2025-01-15T06:00:08.599Z,8.6,12.9720671,77.5946,11.954,0.0,12.972068,77.5946078,ON,1.37399,-0.05263,9.72299,-0.004193,0.00066,-0.002723,0.0,43.0344
2025-01-15T06:00:08.699Z,8.7,12.972078,77.5946,12.093,0.0,12.9720718,77.5945901,ON,1.3341,0.02842,9.67886,-0.003499,0.000357,-0.000682,0.0,43.5348
2025-01-15T06:00:08.800Z,8.8,12.972089,77.5946,12.232,0.0,12.9720911,77.5946037,ON,1.38958,-0.06489,9.79762,0.001001,-0.001166,-0.002875,0.0,44.0352
2025-01-15T06:00:08.900Z,8.9,12.9721001,77.5946,12.371,0.0,12.9721056,77.5945979,ON,1.36954,0.0008,9.91305,0.000527,-0.000666,0.001364,0.0,44.5356
2025-01-15T06:00:09.000Z,9.0,12.9721113,77.5946,12.51,0.0,12.9721221,77.5946069,ON,1.42364,-0.05611,10.18521,-0.002397,-0.000744,-0.0014,0.0,45.036
2025-01-15T06:00:09.099Z,9.1,12.9721227,77.5946,12.649,0.0,12.9721308,77.5946021,ON,1.31864,0.01338,9.86469,-0.000637,-0.00244,-0.00145,0.0,45.5364
2025-01-15T06:00:09.199Z,9.2,12.9721342,77.5946,12.788,0.0,12.972132,77.5946001,ON,1.364,0.03676,9.71501,-0.003463,-0.001479,0.002698,0.0,46.0368
2025-01-15T06:00:09.300Z,9.3,12.9721458,77.5946,12.927,0.0,12.9721429,77.5946117,ON,1.41457,-0.05822,9.72657,0.000487,-0.002355,0.004749,0.0,46.5372
2025-01-15T06:00:09.400Z,9.4,12.9721575,77.5946,13.066,0.0,12.9721526,77.5946034,ON,1.46301,-0.00546,9.71041,-0.000546,0.000724,0.001752,0.0,47.0376
2025-01-15T06:00:09.500Z,9.5,12.9721694,77.5946,13.205,0.0,12.9721697,77.594593,ON,1.39212,-0.03367,9.59168,-0.001395,-0.002865,0.001174,0.0,47.538
2025-01-15T06:00:09.599Z,9.6,12.9721814,77.5946,13.344,0.0,12.9721911,77.5946093,ON,1.36134,-0.02337,9.87888,0.002123,-0.000837,-0.000285,0.0,48.0384
2025-01-15T06:00:09.699Z,9.7,12.9721935,77.5946,13.483,0.0,12.9722045,77.5945995,ON,1.36573,0.006,9.86797,-0.002043,-0.000497,-0.002333,0.0,48.5388
2025-01-15T06:00:09.800Z,9.8,12.9722057,77.5946,13.622,0.0,12.9722043,77.5946094,ON,1.42709,-0.00463,9.71669,-0.000623,0.002101,-0.001123,0.0,49.0392
2025-01-15T06:00:09.900Z,9.9,12.9722181,77.5946,13.761,0.0,12.9722253,77.5945931,ON,1.3755,0.08714,9.60922,0.002377,-0.003703,-0.00018,0.0,49.5396
2025-01-15T06:00:10.000Z,10.0,12.9722306,77.5946001,13.9,0.286,12.9722297,77.5946042,ON,1.23227,0.59911,9.7534,7.4e-05,-0.001786,0.049558,0.286,50.04
2025-01-15T06:00:10.099Z,10.1,12.9722431,77.5946002,13.9,0.573,12.9722371,77.5945982,ON,-0.04234,0.7072,9.86814,0.002866,-0.001313,0.049364,0.573,50.04
2025-01-15T06:00:10.199Z,10.2,12.9722555,77.5946004,13.9,0.859,12.9722558,77.5945989,ON,-0.0026,0.61689,9.84718,-0.00183,-0.001914,0.046824,0.859,50.04
2025-01-15T06:00:10.300Z,10.3,12.972268,77.5946006,13.9,1.146,12.9722738,77.5945999,ON,0.05747,0.70862,9.63966,-0.002167,0.001516,0.048469,1.146,50.04
2025-01-15T06:00:10.400Z,10.4,12.9722805,77.594601,13.9,1.432,12.9722751,77.5946001,ON,-0.00885,0.64441,9.77739,-0.000957,-0.00518,0.051005,1.432,50.04
2025-01-15T06:00:10.500Z,10.5,12.972293,77.5946013,13.9,1.719,12.9722889,77.5946079,ON,-0.05751,0.61602,9.92876,-0.00317,-0.001272,0.051195,1.719,50.04
2025-01-15T06:00:10.599Z,10.6,12.9723055,77.5946018,13.9,2.005,12.9723038,77.5945935,ON,0.0094,0.68528,9.93839,0.001177,0.006071,0.046708,2.005,50.04
2025-01-15T06:00:10.699Z,10.7,12.9723179,77.5946023,13.9,2.292,12.9723178,77.594597,ON,0.05774,0.73609,9.8854,-0.001555,-0.00149,0.045941,2.292,50.04
2025-01-15T06:00:10.800Z,10.8,12.9723304,77.5946029,13.9,2.578,12.972339,77.5946054,ON,-0.01304,0.74168,9.88509,0.001951,-0.003247,0.048572,2.578,50.04
2025-01-15T06:00:10.900Z,10.9,12.9723429,77.5946035,13.9,2.865,12.9723439,77.5946053,ON,0.04786,0.64457,9.82272,0.004411,0.001384,0.051741,2.865,50.04
2025-01-15T06:00:11.000Z,11.0,12.9723554,77.5946042,13.9,3.151,12.9723553,77.5946081,ON,0.0902,0.70033,9.9324,-0.00175,0.00118,0.051808,3.151,50.04
2025-01-15T06:00:11.099Z,11.1,12.9723678,77.594605,13.9,3.438,12.9723641,77.5946105,ON,-0.03376,0.65474,9.80988,0.003864,0.000618,0.051872,3.438,50.04
2025-01-15T06:00:11.199Z,11.2,12.9723803,77.5946058,13.9,3.724,12.9723766,77.5946062,ON,-0.05883,0.66644,9.89356,-7.7e-05,0.002903,0.049595,3.724,50.04
2025-01-15T06:00:11.300Z,11.3,12.9723927,77.5946067,13.9,4.011,12.9723917,77.5946131,ON,-0.03243,0.61901,9.94013,0.000828,-0.00433,0.050089,4.011,50.04
2025-01-15T06:00:11.400Z,11.4,12.9724052,77.5946077,13.9,4.297,12.9724032,77.5946164,ON,-0.03645,0.66596,9.71896,-0.002108,-0.001401,0.047128,4.297,50.04
2025-01-15T06:00:11.500Z,11.5,12.9724176,77.5946087,13.9,4.584,12.9724125,77.5946007,ON,-0.07486,0.61702,9.75788,-0.001367,-0.002453,0.050957,4.584,50.04
2025-01-15T06:00:11.599Z,11.6,12.9724301,77.5946098,13.9,4.87,12.9724298,77.5946076,ON,-0.0232,0.77464,9.83398,0.000951,-0.005172,0.048693,4.87,50.04
2025-01-15T06:00:11.699Z,11.7,12.9724425,77.5946109,13.9,5.157,12.9724317,77.5946088,ON,0.01867,0.66129,9.86186,-0.002045,0.001152,0.046893,5.157,50.04
2025-01-15T06:00:11.800Z,11.8,12.9724549,77.5946122,13.9,5.443,12.9724536,77.5946143,ON,0.0268,0.68864,10.00397,-0.000829,-0.000902,0.044481,5.443,50.04
2025-01-15T06:00:11.900Z,11.9,12.9724674,77.5946134,13.9,5.73,12.9724762,77.5946116,ON,-0.0588,0.76105,9.93355,0.000217,-0.00287,0.050838,5.73,50.04
2025-01-15T06:00:12.000Z,12.0,12.9724798,77.5946148,13.9,6.016,12.9724767,77.5946089,ON,0.05217,0.58837,9.86672,0.000919,0.004102,0.05065,6.016,50.04
2025-01-15T06:00:12.099Z,12.1,12.9724922,77.5946162,13.9,6.303,12.9724819,77.594612,ON,0.00323,0.71278,9.90808,-0.003919,-0.00066,0.05194,6.303,50.04
2025-01-15T06:00:12.199Z,12.2,12.9725046,77.5946177,13.9,6.589,12.9725123,77.594627,ON,-0.01951,0.74988,9.98117,0.002396,0.001447,0.051656,6.589,50.04
2025-01-15T06:00:12.300Z,12.3,12.972517,77.5946192,13.9,6.875,12.9725131,77.594612,ON,0.04914,0.67765,9.80719,-0.001157,-0.000786,0.050465,6.875,50.04
2025-01-15T06:00:12.400Z,12.4,12.9725294,77.5946208,13.9,7.162,12.9725243,77.5946211,ON,0.0123,0.69113,9.73564,0.001573,0.003745,0.048798,7.162,50.04
2025-01-15T06:00:12.500Z,12.5,12.9725418,77.5946225,13.9,7.448,12.9725479,77.5946269,ON,-0.13266,0.65694,9.74642,0.001564,0.000377,0.050949,7.448,50.04
2025-01-15T06:00:12.599Z,12.6,12.9725541,77.5946242,13.9,7.735,12.9725573,77.5946197,ON,-0.03733,0.63386,9.79297,-0.000238,0.000342,0.048545,7.735,50.04
2025-01-15T06:00:12.699Z,12.7,12.9725665,77.594626,13.9,8.021,12.972571,77.5946306,ON,0.07733,0.73057,9.82855,0.001345,0.00122,0.048696,8.021,50.04
2025-01-15T06:00:12.800Z,12.8,12.9725789,77.5946278,13.9,8.308,12.9725853,77.5946364,ON,0.09885,0.69676,9.84243,0.000833,-5e-06,0.051239,8.308,50.04
2025-01-15T06:00:12.900Z,12.9,12.9725912,77.5946297,13.9,8.594,12.9725906,77.5946288,ON,0.08795,0.70324,9.8167,0.001764,0.000301,0.050583,8.594,50.04
2025-01-15T06:00:13.000Z,13.0,12.9726035,77.5946317,13.9,8.881,12.9726032,77.5946256,ON,-0.00155,0.63816,9.83102,-0.002363,0.001833,0.051498,8.881,50.04
2025-01-15T06:00:13.099Z,13.1,12.9726159,77.5946338,13.9,9.167,12.9726173,77.5946333,ON,0.02082,0.59675,9.70032,-0.000297,0.000691,0.049841,9.167,50.04
2025-01-15T06:00:13.199Z,13.2,12.9726282,77.5946359,13.9,9.454,12.9726232,77.5946365,ON,-0.02269,0.64157,9.84295,-0.00042,0.002393,0.051331,9.454,50.04
2025-01-15T06:00:13.300Z,13.3,12.9726405,77.594638,13.9,9.74,12.9726442,77.5946396,ON,-0.04226,0.64822,9.66288,0.005758,-0.002159,0.04958,9.74,50.04
2025-01-15T06:00:13.400Z,13.4,12.9726528,77.5946403,13.9,10.027,12.972651,77.5946389,ON,-0.0292,0.60158,9.71018,-0.002781,-0.000254,0.048632,10.027,50.04
2025-01-15T06:00:13.500Z,13.5,12.9726651,77.5946426,13.9,10.313,12.9726616,77.5946436,ON,-0.02914,0.7416,9.77138,0.00045,-0.002651,0.051314,10.313,50.04
2025-01-15T06:00:13.599Z,13.6,12.9726774,77.5946449,13.9,10.6,12.9726753,77.594647,ON,0.0165,0.68633,9.83174,-0.000771,0.002692,0.051869,10.6,50.04
2025-01-15T06:00:13.699Z,13.7,12.9726896,77.5946473,13.9,10.886,12.972692,77.5946414,ON,-0.05497,0.66181,9.7855,0.000896,-0.001793,0.052354,10.886,50.04
2025-01-15T06:00:13.800Z,13.8,12.9727019,77.5946498,13.9,11.173,12.9727019,77.5946397,ON,-0.02377,0.56574,9.73483,-0.001098,-0.001221,0.049349,11.173,50.04
2025-01-15T06:00:13.900Z,13.9,12.9727141,77.5946524,13.9,11.459,12.9727121,77.5946494,ON,0.07512,0.75575,9.69582,0.002508,-0.003243,0.048371,11.459,50.04
2025-01-15T06:00:14.000Z,14.0,12.9727263,77.594655,13.9,11.746,12.972734,77.5946438,ON,0.02874,0.63233,9.7956,-0.00036,0.003394,0.048379,11.746,50.04
2025-01-15T06:00:14.099Z,14.1,12.9727385,77.5946576,13.9,12.032,12.9727382,77.5946608,ON,-0.01259,0.6539,9.80408,0.000187,0.001768,0.048114,12.032,50.04
2025-01-15T06:00:14.199Z,14.2,12.9727507,77.5946604,13.9,12.319,12.9727485,77.594662,ON,-0.00836,0.68574,9.8083,-0.001392,-0.001599,0.050881,12.319,50.04
2025-01-15T06:00:14.300Z,14.3,12.9727629,77.5946632,13.9,12.605,12.9727574,77.594669,ON,0.01087,0.63117,9.8383,0.000335,0.001524,0.052318,12.605,50.04
2025-01-15T06:00:14.400Z,14.4,12.9727751,77.594666,13.9,12.892,12.9727733,77.5946625,ON,-0.0303,0.64595,9.73536,0.000569,3.1e-05,0.049017,12.892,50.04
2025-01-15T06:00:14.500Z,14.5,12.9727873,77.5946689,13.9,13.178,12.9727836,77.5946707,ON,-0.02508,0.64299,9.79483,-0.000529,-0.00214,0.051654,13.178,50.04
2025-01-15T06:00:14.599Z,14.6,12.9727994,77.5946719,13.9,13.465,12.9728036,77.5946721,ON,0.00655,0.72137,9.80691,0.001783,0.003312,0.050161,13.465,50.04
2025-01-15T06:00:14.699Z,14.7,12.9728115,77.594675,13.9,13.751,12.9728137,77.5946793,ON,-0.0169,0.63858,9.9006,-0.003138,0.003578,0.051741,13.751,50.04
2025-01-15T06:00:14.800Z,14.8,12.9728236,77.5946781,13.9,14.037,12.9728246,77.5946783,ON,0.08757,0.64769,9.69398,-0.001196,-0.000524,0.047987,14.037,50.04
2025-01-15T06:00:14.900Z,14.9,12.9728357,77.5946813,13.9,14.324,12.9728365,77.5946819,ON,-0.04069,0.77515,9.67079,-0.002553,0.000752,0.049585,14.324,50.04
2025-01-15T06:00:15.000Z,15.0,12.9728478,77.5946845,13.9,14.61,12.9728499,77.5946814,ON,-0.05167,0.66272,9.74164,0.00105,-0.00096,0.051523,14.61,50.04
2025-01-15T06:00:15.099Z,15.1,12.9728599,77.5946878,13.9,14.897,12.9728628,77.594693,ON,0.04504,0.73422,9.88699,-0.001033,-0.000524,0.04634,14.897,50.04
2025-01-15T06:00:15.199Z,15.2,12.9728719,77.5946911,13.9,15.183,12.9728734,77.5946878,ON,0.02008,0.72137,9.67479,-0.002028,-0.000699,0.048965,15.183,50.04
2025-01-15T06:00:15.300Z,15.3,12.972884,77.5946946,13.9,15.47,12.9728848,77.5946888,ON,0.00236,0.61058,9.59449,0.001433,-0.002611,0.04888,15.47,50.04
2025-01-15T06:00:15.400Z,15.4,12.972896,77.594698,13.9,15.756,12.9728889,77.594691,ON,-0.01994,0.67449,9.90826,0.000899,-0.000522,0.051515,15.756,50.04
2025-01-15T06:00:15.500Z,15.5,12.972908,77.5947016,13.9,16.043,12.9729136,77.5947036,ON,-0.02032,0.74593,9.98685,0.001321,0.003541,0.051853,16.043,50.04
2025-01-15T06:00:15.599Z,15.6,12.97292,77.5947052,13.9,16.329,12.9729242,77.5946997,ON,-0.05568,0.69253,9.64305,-0.001186,0.001735,0.04867,16.329,50.04
2025-01-15T06:00:15.699Z,15.7,12.9729319,77.5947088,13.9,16.616,12.9729346,77.5947021,ON,-0.02468,0.74617,9.83085,0.000581,0.003409,0.052594,16.616,50.04
2025-01-15T06:00:15.800Z,15.8,12.9729439,77.5947126,13.9,16.902,12.9729395,77.5947192,ON,-0.03076,0.69412,9.81152,0.002146,-0.002259,0.050904,16.902,50.04
2025-01-15T06:00:15.900Z,15.9,12.9729558,77.5947164,13.9,17.189,12.9729584,77.5947204,ON,-0.01052,0.74517,9.73885,0.002294,0.000704,0.0472,17.189,50.04
2025-01-15T06:00:16.000Z,16.0,12.9729677,77.5947202,13.9,17.475,12.9729698,77.5947211,ON,-0.01778,0.65819,9.78598,-0.002884,0.003381,0.047743,17.475,50.04
2025-01-15T06:00:16.100Z,16.1,12.9729796,77.5947241,13.9,17.762,12.9729763,77.5947298,ON,0.02925,0.73101,9.96167,-0.000624,-0.002093,0.051689,17.762,50.04
2025-01-15T06:00:16.199Z,16.2,12.9729915,77.5947281,13.9,18.048,12.9729955,77.5947264,ON,-0.06328,0.75696,9.86758,-0.002747,0.00156,0.047118,18.048,50.04
2025-01-15T06:00:16.300Z,16.3,12.9730033,77.5947321,13.9,18.335,12.9730009,77.5947265,ON,-0.03189,0.65333,9.74867,0.001449,0.000589,0.051257,18.335,50.04
2025-01-15T06:00:16.399Z,16.4,12.9730152,77.5947362,13.9,18.621,12.9730206,77.5947343,ON,0.00399,0.72191,9.98067,0.001798,0.002763,0.052038,18.621,50.04
2025-01-15T06:00:16.500Z,16.5,12.973027,77.5947404,13.9,18.908,12.9730323,77.5947314,ON,0.04404,0.70565,9.81542,-0.001055,-0.000851,0.050832,18.908,50.04
2025-01-15T06:00:16.600Z,16.6,12.9730388,77.5947446,13.9,19.194,12.973043,77.5947371,ON,0.01091,0.66697,9.71492,0.000785,-0.000657,0.048682,19.194,50.04
2025-01-15T06:00:16.699Z,16.7,12.9730505,77.5947488,13.9,19.481,12.9730467,77.5947502,ON,-0.0005,0.64042,9.7259,-0.000365,0.00081,0.047901,19.481,50.04
2025-01-15T06:00:16.800Z,16.8,12.9730623,77.5947532,13.9,19.767,12.9730647,77.5947491,ON,0.13639,0.64795,9.73099,0.000388,-0.001805,0.051655,19.767,50.04
2025-01-15T06:00:16.899Z,16.9,12.973074,77.5947576,13.9,20.054,12.973083,77.5947556,ON,0.00864,0.66911,9.81,0.002863,0.001788,0.048192,20.054,50.04
2025-01-15T06:00:17.000Z,17.0,12.9730857,77.594762,13.9,20.34,12.9730935,77.5947678,ON,0.02432,0.66204,9.81657,-0.001591,0.000935,0.049367,20.34,50.04
2025-01-15T06:00:17.100Z,17.1,12.9730974,77.5947665,13.9,20.626,12.9730862,77.5947712,ON,0.00957,0.74892,9.79638,0.000377,0.002231,0.050776,20.626,50.04
2025-01-15T06:00:17.199Z,17.2,12.9731091,77.5947711,13.9,20.913,12.9731105,77.5947872,ON,-0.00845,0.70346,9.9834,-0.00161,-0.002082,0.047136,20.913,50.04
2025-01-15T06:00:17.300Z,17.3,12.9731207,77.5947757,13.9,21.199,12.9731234,77.5947789,ON,0.03707,0.62732,9.91059,0.002395,-0.000195,0.050065,21.199,50.04
2025-01-15T06:00:17.399Z,17.4,12.9731323,77.5947804,13.9,21.486,12.9731357,77.5947823,ON,0.0321,0.6407,9.79254,-0.002425,0.001263,0.05106,21.486,50.04
2025-01-15T06:00:17.500Z,17.5,12.9731439,77.5947852,13.9,21.772,12.9731435,77.5947867,ON,-0.07783,0.7379,9.76327,0.000258,0.002231,0.048487,21.772,50.04
2025-01-15T06:00:17.600Z,17.6,12.9731555,77.59479,13.9,22.059,12.9731615,77.5947906,ON,0.00141,0.7228,9.6853,0.001188,0.000123,0.052073,22.059,50.04
2025-01-15T06:00:17.699Z,17.7,12.9731671,77.5947949,13.9,22.345,12.973166,77.5947931,ON,0.01848,0.69203,9.6926,-0.000388,0.002535,0.049814,22.345,50.04
2025-01-15T06:00:17.800Z,17.8,12.9731786,77.5947998,13.9,22.632,12.9731742,77.5948034,ON,-0.09267,0.58899,9.80958,0.000362,0.000441,0.048214,22.632,50.04
2025-01-15T06:00:17.899Z,17.9,12.9731901,77.5948048,13.9,22.918,12.9731893,77.5947978,ON,0.01098,0.61423,9.79508,0.000523,-0.003513,0.048955,22.918,50.04
2025-01-15T06:00:18.000Z,18.0,12.9732016,77.5948098,13.9,22.918,12.9732055,77.5948175,ON,-0.0752,0.017,9.68641,-0.002691,0.003192,0.001336,22.918,50.04
2025-01-15T06:00:18.100Z,18.1,12.9732131,77.5948148,13.9,22.918,12.9732091,77.5948159,ON,0.0321,0.00906,10.03473,0.001212,-0.005986,-0.00058,22.918,50.04
2025-01-15T06:00:18.199Z,18.2,12.9732246,77.5948198,13.9,22.918,12.9732209,77.5948187,ON,0.00067,-0.03256,9.70151,0.002727,0.001195,-0.001341,22.918,50.04
2025-01-15T06:00:18.300Z,18.3,12.9732361,77.5948248,13.9,22.918,12.9732395,77.5948281,ON,0.06337,-0.05277,9.88799,-0.001216,0.00231,-0.000385,22.918,50.04
2025-01-15T06:00:18.399Z,18.4,12.9732476,77.5948297,13.9,22.918,12.9732362,77.5948299,ON,-0.08921,-0.01086,9.80418,-0.000803,-0.002974,-0.002231,22.918,50.04
2025-01-15T06:00:18.500Z,18.5,12.9732591,77.5948347,13.9,22.918,12.9732549,77.5948335,ON,0.06442,0.03545,9.76278,0.002548,-0.002736,0.00137,22.918,50.04
2025-01-15T06:00:18.600Z,18.6,12.9732706,77.5948397,13.9,22.918,12.9732697,77.5948409,ON,0.03192,-0.03398,9.89012,-1.9e-05,0.004824,-0.000609,22.918,50.04
2025-01-15T06:00:18.699Z,18.7,12.9732821,77.5948447,13.9,22.918,12.9732884,77.5948479,ON,-0.05871,0.06803,9.70396,-0.004464,0.001707,0.002138,22.918,50.04
2025-01-15T06:00:18.800Z,18.8,12.9732936,77.5948497,13.9,22.918,12.9732939,77.5948484,ON,0.07918,0.03559,9.74441,0.001463,-0.002487,-0.001118,22.918,50.04
2025-01-15T06:00:18.899Z,18.9,12.9733051,77.5948547,13.9,22.918,12.9732998,77.5948437,ON,-0.05886,0.06112,9.70022,-0.0011,-0.002322,0.001731,22.918,50.04
2025-01-15T06:00:19.000Z,19.0,12.9733166,77.5948597,13.9,22.918,12.9733166,77.5948621,ON,-0.00528,-0.05855,9.71261,0.001675,-0.000115,0.001549,22.918,50.04
2025-01-15T06:00:19.100Z,19.1,12.9733281,77.5948647,13.9,22.918,12.9733123,77.5948702,ON,-0.0247,0.10864,9.75892,5.7e-05,0.001321,-0.001752,22.918,50.04
2025-01-15T06:00:19.199Z,19.2,12.9733396,77.5948697,13.9,22.918,12.973344,77.5948664,ON,0.06446,0.03966,9.85956,-0.001448,-0.000421,0.0006,22.918,50.04
2025-01-15T06:00:19.300Z,19.3,12.9733511,77.5948747,13.9,22.918,12.9733409,77.5948719,ON,0.0469,-0.06341,9.9379,-0.001257,0.000647,-0.002295,22.918,50.04
2025-01-15T06:00:19.399Z,19.4,12.9733626,77.5948796,13.9,22.918,12.973365,77.594882,ON,0.05682,0.0677,9.93535,0.000418,-0.002452,0.002648,22.918,50.04
2025-01-15T06:00:19.500Z,19.5,12.9733741,77.5948846,13.9,22.918,12.9733676,77.5948824,ON,0.03686,0.02218,9.96931,-8e-06,-0.00338,-0.000551,22.918,50.04
2025-01-15T06:00:19.600Z,19.6,12.9733856,77.5948896,13.9,22.918,12.9733865,77.5948879,ON,0.07062,-0.01238,9.66642,0.000934,-0.002295,0.0034,22.918,50.04
2025-01-15T06:00:19.699Z,19.7,12.9733971,77.5948946,13.9,22.918,12.9733985,77.5948876,ON,0.05397,0.11846,9.60959,0.001806,0.000968,0.000351,22.918,50.04
2025-01-15T06:00:19.800Z,19.8,12.9734086,77.5948996,13.9,22.918,12.9734103,77.5949021,ON,-0.03465,0.07055,9.67505,0.003917,0.003055,-0.002372,22.918,50.04
2025-01-15T06:00:19.899Z,19.9,12.9734201,77.5949046,13.9,22.918,12.9734201,77.5949117,ON,-0.02455,-0.00812,9.76976,0.002335,-0.001215,-2e-05,22.918,50.04
2025-01-15T06:00:20.000Z,20.0,12.9734316,77.5949096,13.9,22.918,12.9734343,77.5949085,ON,-0.04332,-0.06708,9.65817,-0.00236,-0.003441,-0.001454,22.918,50.04
2025-01-15T06:00:20.100Z,20.1,12.9734431,77.5949146,13.9,22.918,12.9734446,77.5949148,ON,-0.04133,-0.0509,9.71066,-0.002776,-0.002472,0.001429,22.918,50.04
2025-01-15T06:00:20.199Z,20.2,12.9734546,77.5949196,13.9,22.918,12.9734476,77.5949196,ON,-0.0309,0.1214,9.63031,0.000387,-0.000668,-0.001542,22.918,50.04
2025-01-15T06:00:20.300Z,20.3,12.9734661,77.5949245,13.9,22.918,12.9734677,77.5949253,ON,-0.05345,0.02131,9.84892,0.002619,-0.00122,0.002941,22.918,50.04
2025-01-15T06:00:20.399Z,20.4,12.9734776,77.5949295,13.9,22.918,12.9734766,77.5949197,ON,0.02615,-0.00408,9.72176,0.001866,-0.000943,0.002034,22.918,50.04
2025-01-15T06:00:20.500Z,20.5,12.9734891,77.5949345,13.9,22.918,12.9734887,77.5949383,ON,0.03397,0.02366,9.7068,0.001839,4.4e-05,0.004005,22.918,50.04
2025-01-15T06:00:20.600Z,20.6,12.9735006,77.5949395,13.9,22.918,12.973503,77.5949433,ON,-0.03824,-0.02031,9.81967,-0.002341,-0.002341,-0.000217,22.918,50.04
2025-01-15T06:00:20.699Z,20.7,12.9735121,77.5949445,13.9,22.918,12.9735117,77.5949455,ON,0.05586,-0.02002,9.87809,-0.000289,-0.000388,0.000514,22.918,50.04
2025-01-15T06:00:20.800Z,20.8,12.9735236,77.5949495,13.9,22.918,12.9735133,77.5949498,ON,-0.03191,-0.04649,9.6213,-0.000886,-0.003755,0.00174,22.918,50.04
2025-01-15T06:00:20.899Z,20.9,12.9735351,77.5949545,13.9,22.918,12.9735339,77.5949461,ON,-0.03368,0.03775,9.75051,-0.000562,-0.000738,-0.000257,22.918,50.04
2025-01-15T06:00:21.000Z,21.0,12.9735466,77.5949595,13.9,22.918,12.9735381,77.5949593,ON,-0.0279,0.14769,9.7887,-0.000911,0.001977,-0.000312,22.918,50.04
2025-01-15T06:00:21.100Z,21.1,12.9735581,77.5949645,13.9,22.918,12.9735594,77.5949601,ON,0.07776,-0.03138,9.84754,0.002265,-0.000609,-0.0,22.918,50.04
2025-01-15T06:00:21.199Z,21.2,12.9735696,77.5949695,13.9,22.918,12.9735726,77.5949729,ON,-0.0545,0.00907,9.71546,-0.001491,-0.001297,0.002432,22.918,50.04
2025-01-15T06:00:21.300Z,21.3,12.9735811,77.5949744,13.9,22.918,12.9735891,77.5949875,ON,-0.00283,-0.04207,9.71305,0.003215,-0.003077,-0.000634,22.918,50.04
2025-01-15T06:00:21.399Z,21.4,12.9735926,77.5949794,13.9,22.918,12.9735898,77.5949882,ON,-0.05067,0.05508,9.94134,-0.000334,0.000931,-0.003077,22.918,50.04
2025-01-15T06:00:21.500Z,21.5,12.9736041,77.5949844,13.9,22.918,12.9736037,77.5949834,ON,-0.12898,0.02077,9.84552,-0.003387,-0.002825,-0.001499,22.918,50.04
2025-01-15T06:00:21.600Z,21.6,12.9736156,77.5949894,13.9,22.918,12.973613,77.5949879,ON,-0.04791,-0.05039,9.84065,-0.00095,-0.000214,-0.000459,22.918,50.04
2025-01-15T06:00:21.699Z,21.7,12.9736271,77.5949944,13.9,22.918,12.9736294,77.5949936,ON,0.04308,0.00515,9.8989,0.002494,-0.002921,0.001844,22.918,50.04
2025-01-15T06:00:21.800Z,21.8,12.9736386,77.5949994,13.9,22.918,12.9736475,77.5949945,ON,-0.00159,-0.01786,9.85408,0.00104,-0.001339,0.002625,22.918,50.04
2025-01-15T06:00:21.899Z,21.9,12.9736501,77.5950044,13.9,22.918,12.9736458,77.5950037,ON,0.05118,0.09767,9.75873,0.001565,0.00044,-0.003165,22.918,50.04
2025-01-15T06:00:22.000Z,22.0,12.9736616,77.5950094,13.9,22.918,12.9736569,77.5950034,ON,-0.02517,-0.02084,9.81279,0.002555,0.000845,0.005306,22.918,50.04
2025-01-15T06:00:22.100Z,22.1,12.9736731,77.5950144,13.9,22.918,12.9736719,77.5950183,ON,0.02072,0.07533,9.77213,0.001691,0.003258,-0.001442,22.918,50.04
2025-01-15T06:00:22.199Z,22.2,12.9736846,77.5950194,13.9,22.918,12.9736843,77.5950219,ON,-0.02174,-0.04376,9.99327,-0.000459,0.003468,-0.001017,22.918,50.04
2025-01-15T06:00:22.300Z,22.3,12.9736961,77.5950243,13.9,22.918,12.9736951,77.5950283,ON,-0.0103,-0.04494,9.73801,0.000545,-0.001332,0.000176,22.918,50.04
2025-01-15T06:00:22.399Z,22.4,12.9737076,77.5950293,13.9,22.918,12.9736963,77.5950265,ON,-0.00902,-0.02563,9.71064,-0.001767,0.000141,0.002974,22.918,50.04
2025-01-15T06:00:22.500Z,22.5,12.9737191,77.5950343,13.9,22.918,12.9737121,77.5950329,ON,0.04885,0.01672,9.80062,-0.000901,2.7e-05,-0.000202,22.918,50.04
2025-01-15T06:00:22.600Z,22.6,12.9737306,77.5950393,13.9,22.918,12.9737197,77.5950357,ON,-0.09748,0.06455,9.89226,-0.001576,0.00161,0.004897,22.918,50.04
2025-01-15T06:00:22.699Z,22.7,12.9737421,77.5950443,13.9,22.918,12.973739,77.5950508,ON,0.01813,-0.01183,9.69941,-0.001112,-0.00079,-0.004632,22.918,50.04
2025-01-15T06:00:22.800Z,22.8,12.9737536,77.5950493,13.9,22.918,12.9737563,77.5950477,ON,0.02296,-0.02096,10.10983,-0.003315,-0.001866,0.00141,22.918,50.04
2025-01-15T06:00:22.899Z,22.9,12.9737651,77.5950543,13.9,22.918,12.9737769,77.5950493,ON,0.09146,-0.04585,9.93934,0.000151,0.00446,0.003564,22.918,50.04
2025-01-15T06:00:23.000Z,23.0,12.9737766,77.5950593,13.9,22.918,12.9737734,77.595074,ON,-0.05621,-0.01568,9.99079,-0.00147,-0.001283,0.000261,22.918,50.04
2025-01-15T06:00:23.100Z,23.1,12.9737881,77.5950643,13.9,22.918,12.9737904,77.5950662,ON,-0.03728,0.00984,9.87374,0.003008,0.000656,-0.002506,22.918,50.04
2025-01-15T06:00:23.199Z,23.2,12.9737996,77.5950693,13.9,22.918,12.9737998,77.5950662,ON,0.06595,-0.08377,9.86597,-0.002131,0.002544,0.001542,22.918,50.04
2025-01-15T06:00:23.300Z,23.3,12.9738111,77.5950742,13.9,22.918,12.9738122,77.5950768,ON,-0.01684,0.03379,9.80504,0.001462,0.000117,-0.004962,22.918,50.04
2025-01-15T06:00:23.399Z,23.4,12.9738226,77.5950792,13.9,22.918,12.9738201,77.5950868,ON,0.07263,0.00523,9.7974,-0.00067,0.001261,0.001158,22.918,50.04
2025-01-15T06:00:23.500Z,23.5,12.9738341,77.5950842,13.9,22.918,12.9738292,77.5950875,ON,0.06164,-0.04774,9.79132,0.000927,0.001446,-0.000841,22.918,50.04
2025-01-15T06:00:23.600Z,23.6,12.9738456,77.5950892,13.9,22.918,12.973843,77.5950869,ON,0.01926,0.02146,9.80806,-0.002728,-0.00218,0.001274,22.918,50.04
2025-01-15T06:00:23.699Z,23.7,12.9738571,77.5950942,13.9,22.918,12.973851,77.5950953,ON,-0.01804,-0.03011,9.81267,0.003353,0.000578,-0.000591,22.918,50.04
2025-01-15T06:00:23.800Z,23.8,12.9738686,77.5950992,13.9,22.918,12.9738613,77.5951018,ON,0.05684,0.03037,9.9266,0.000953,-0.002607,-9e-05,22.918,50.04
2025-01-15T06:00:23.899Z,23.9,12.9738801,77.5951042,13.9,22.918,12.9738828,77.5951078,ON,-0.02465,-0.00317,9.84659,0.002543,0.00201,0.001293,22.918,50.04
2025-01-15T06:00:24.000Z,24.0,12.9738916,77.5951092,13.9,22.918,12.9738936,77.595104,ON,-0.05505,-0.00459,9.91416,0.000791,0.001122,-0.003003,22.918,50.04
2025-01-15T06:00:24.100Z,24.1,12.9739031,77.5951142,13.9,22.918,12.9738958,77.5951198,ON,-0.00173,-0.06568,9.89822,0.000516,0.005903,0.0025,22.918,50.04
2025-01-15T06:00:24.199Z,24.2,12.9739146,77.5951192,13.9,22.918,12.9739164,77.5951184,ON,0.01161,-0.00513,9.66612,0.001855,0.00055,-0.005509,22.918,50.04
2025-01-15T06:00:24.300Z,24.3,12.9739261,77.5951241,13.9,22.918,12.973923,77.59512,ON,0.04904,-0.0022,9.95874,-0.003183,-0.002152,0.002134,22.918,50.04
2025-01-15T06:00:24.399Z,24.4,12.9739377,77.5951291,13.9,22.918,12.9739344,77.5951238,ON,-0.02633,-0.03799,9.86393,0.002236,-0.003174,-0.000582,22.918,50.04
2025-01-15T06:00:24.500Z,24.5,12.9739492,77.5951341,13.9,22.918,12.9739492,77.5951345,ON,0.04166,0.00599,9.75202,-0.002224,-0.003649,-0.000742,22.918,50.04
2025-01-15T06:00:24.600Z,24.6,12.9739607,77.5951391,13.9,22.918,12.9739607,77.5951437,ON,-0.01889,0.11619,9.80235,-0.000967,0.000761,-0.001941,22.918,50.04
2025-01-15T06:00:24.699Z,24.7,12.9739722,77.5951441,13.9,22.918,12.9739732,77.5951338,ON,0.0338,0.00333,9.83106,0.00031,-0.002548,-0.001797,22.918,50.04
2025-01-15T06:00:24.800Z,24.8,12.9739837,77.5951491,13.9,22.918,12.9739915,77.5951516,ON,-0.02986,0.02105,9.85077,0.003909,0.002221,0.000822,22.918,50.04
2025-01-15T06:00:24.899Z,24.9,12.9739952,77.5951541,13.9,22.918,12.9739929,77.595163,ON,-0.00508,-0.04353,9.68798,-0.001725,-0.000728,0.001531,22.918,50.04
2025-01-15T06:00:25.000Z,25.0,12.9740067,77.595159,13.9,22.689,12.9740112,77.5951648,ON,0.00765,-0.51443,10.03593,0.001821,0.003206,-0.043021,22.689,50.04
2025-01-15T06:00:25.100Z,25.1,12.9740182,77.5951639,13.9,22.46,12.9740145,77.5951602,ON,-0.13385,-0.55232,9.94924,-0.001071,0.000391,-0.041708,22.46,50.04
2025-01-15T06:00:25.199Z,25.2,12.9740298,77.5951688,13.9,22.231,12.9740273,77.5951702,ON,-0.05979,-0.4973,9.61812,0.000644,-0.000983,-0.037022,22.231,50.04
2025-01-15T06:00:25.300Z,25.3,12.9740414,77.5951736,13.9,22.002,12.9740452,77.5951631,ON,-0.12112,-0.60607,9.75978,-0.000378,6e-05,-0.038653,22.002,50.04
2025-01-15T06:00:25.399Z,25.4,12.9740529,77.5951783,13.9,21.772,12.9740461,77.5951693,ON,0.01262,-0.57405,9.79966,-0.001284,-0.000346,-0.037027,21.772,50.04
2025-01-15T06:00:25.500Z,25.5,12.9740646,77.595183,13.9,21.543,12.9740564,77.5951769,ON,0.03208,-0.47763,9.78944,-0.002525,-0.004002,-0.039479,21.543,50.04
2025-01-15T06:00:25.600Z,25.6,12.9740762,77.5951877,13.9,21.314,12.9740699,77.5951986,ON,0.11708,-0.54468,9.85855,-0.000236,0.002284,-0.040006,21.314,50.04
2025-01-15T06:00:25.699Z,25.7,12.9740878,77.5951923,13.9,21.085,12.9740882,77.5951991,ON,0.03131,-0.44945,9.64632,-0.001111,-0.001808,-0.038316,21.085,50.04
2025-01-15T06:00:25.800Z,25.8,12.9740995,77.5951969,13.9,20.856,12.974097,77.5951999,ON,-0.05845,-0.56072,10.0397,0.003277,-0.003757,-0.039271,20.856,50.04
2025-01-15T06:00:25.899Z,25.9,12.9741112,77.5952014,13.9,20.626,12.9741153,77.5951989,ON,-0.05512,-0.5229,9.82008,0.001105,-0.000316,-0.035338,20.626,50.04
2025-01-15T06:00:26.000Z,26.0,12.9741229,77.5952058,13.9,20.397,12.9741183,77.5952034,ON,0.02574,-0.51941,9.67213,0.002595,-0.002916,-0.039987,20.397,50.04
2025-01-15T06:00:26.100Z,26.1,12.9741346,77.5952103,13.9,20.168,12.9741331,77.5952067,ON,0.05666,-0.67335,9.73692,-0.001806,0.00175,-0.036899,20.168,50.04
2025-01-15T06:00:26.199Z,26.2,12.9741464,77.5952146,13.9,19.939,12.9741502,77.5952216,ON,-0.11123,-0.54782,9.6717,-0.00075,0.000489,-0.039811,19.939,50.04
2025-01-15T06:00:26.300Z,26.3,12.9741581,77.5952189,13.9,19.71,12.974165,77.595209,ON,-0.04179,-0.63003,9.64612,0.002012,0.000365,-0.036887,19.71,50.04
2025-01-15T06:00:26.399Z,26.4,12.9741699,77.5952232,13.9,19.481,12.9741758,77.5952236,ON,-0.04848,-0.50641,9.74084,-0.002399,-0.002301,-0.039756,19.481,50.04
2025-01-15T06:00:26.500Z,26.5,12.9741817,77.5952274,13.9,19.251,12.974188,77.5952277,ON,0.06122,-0.55143,9.76736,0.005442,0.003642,-0.039606,19.251,50.04
2025-01-15T06:00:26.600Z,26.6,12.9741935,77.5952316,13.9,19.022,12.9741893,77.5952236,ON,0.02007,-0.56878,9.8567,0.000646,0.000873,-0.037716,19.022,50.04
2025-01-15T06:00:26.699Z,26.7,12.9742053,77.5952357,13.9,18.793,12.9742069,77.5952321,ON,-0.03853,-0.52684,9.70282,0.001437,0.001428,-0.040088,18.793,50.04
2025-01-15T06:00:26.800Z,26.8,12.9742171,77.5952398,13.9,18.564,12.9742132,77.5952309,ON,-0.0562,-0.6373,9.81267,-0.000885,-0.001841,-0.038255,18.564,50.04
2025-01-15T06:00:26.899Z,26.9,12.974229,77.5952439,13.9,18.335,12.9742296,77.5952441,ON,0.02791,-0.50418,9.64972,0.001413,-0.003618,-0.041589,18.335,50.04
2025-01-15T06:00:27.000Z,27.0,12.9742409,77.5952478,13.9,18.105,12.9742459,77.5952513,ON,0.03324,-0.5469,9.9513,-0.003082,-0.00061,-0.039905,18.105,50.04
2025-01-15T06:00:27.100Z,27.1,12.9742527,77.5952518,13.9,17.876,12.9742629,77.5952569,ON,0.05192,-0.59407,10.03497,0.000944,-0.002012,-0.035309,17.876,50.04
2025-01-15T06:00:27.199Z,27.2,12.9742646,77.5952557,13.9,17.647,12.9742575,77.5952513,ON,-0.0117,-0.60502,9.86272,0.000554,0.000227,-0.036212,17.647,50.04
2025-01-15T06:00:27.300Z,27.3,12.9742766,77.5952595,13.9,17.418,12.9742684,77.5952663,ON,-0.04123,-0.48289,10.00052,0.004603,-0.000381,-0.042327,17.418,50.04
2025-01-15T06:00:27.399Z,27.4,12.9742885,77.5952633,13.9,17.189,12.9742901,77.595263,ON,-0.08814,-0.51922,9.71773,0.002884,0.00193,-0.040563,17.189,50.04
2025-01-15T06:00:27.500Z,27.5,12.9743004,77.595267,13.9,16.96,12.9743006,77.5952658,ON,-0.02287,-0.40108,9.71638,0.000111,0.001983,-0.040769,16.96,50.04
2025-01-15T06:00:27.600Z,27.6,12.9743124,77.5952707,13.9,16.73,12.9743092,77.5952641,ON,0.0596,-0.5204,9.85699,-0.003018,0.001007,-0.039429,16.73,50.04
2025-01-15T06:00:27.699Z,27.7,12.9743244,77.5952743,13.9,16.501,12.9743227,77.5952675,ON,-0.00283,-0.59954,9.818,0.000127,-0.000676,-0.038236,16.501,50.04
2025-01-15T06:00:27.800Z,27.8,12.9743363,77.5952779,13.9,16.272,12.974336,77.5952806,ON,0.02092,-0.50559,9.71359,-0.000691,0.001844,-0.039693,16.272,50.04
2025-01-15T06:00:27.899Z,27.9,12.9743483,77.5952815,13.9,16.043,12.974354,77.5952852,ON,-0.02223,-0.51197,9.78425,0.001913,0.003708,-0.037817,16.043,50.04
2025-01-15T06:00:28.000Z,28.0,12.9743604,77.595285,13.9,15.814,12.9743718,77.5952772,ON,-0.02742,-0.56932,9.76997,0.000745,-0.000736,-0.037788,15.814,50.04
2025-01-15T06:00:28.100Z,28.1,12.9743724,77.5952884,13.9,15.584,12.9743773,77.5952905,ON,-0.05061,-0.52863,9.87743,0.000708,6e-05,-0.037199,15.584,50.04
2025-01-15T06:00:28.199Z,28.2,12.9743844,77.5952918,13.9,15.355,12.9743817,77.59529,ON,0.03335,-0.52946,9.89526,-0.000568,-0.002629,-0.042475,15.355,50.04
2025-01-15T06:00:28.300Z,28.3,12.9743965,77.5952951,13.9,15.126,12.9743943,77.5952991,ON,0.03961,-0.6468,9.86339,-0.000174,-0.002084,-0.035618,15.126,50.04
2025-01-15T06:00:28.399Z,28.4,12.9744085,77.5952984,13.9,14.897,12.9744099,77.5953026,ON,0.12838,-0.58506,9.77032,0.002978,-0.002615,-0.039852,14.897,50.04
2025-01-15T06:00:28.500Z,28.5,12.9744206,77.5953017,13.9,14.668,12.9744209,77.5953065,ON,0.02027,-0.60166,9.90722,0.00169,-0.002102,-0.041376,14.668,50.04
2025-01-15T06:00:28.600Z,28.6,12.9744327,77.5953049,13.9,14.439,12.9744301,77.5952991,ON,0.05323,-0.57219,9.78222,-0.002076,-0.000789,-0.03703,14.439,50.04
2025-01-15T06:00:28.699Z,28.7,12.9744448,77.595308,13.9,14.209,12.9744486,77.5952999,ON,-0.04949,-0.52422,9.76019,-0.001106,-0.001721,-0.042662,14.209,50.04
2025-01-15T06:00:28.800Z,28.8,12.9744569,77.5953111,13.9,13.98,12.9744574,77.5953092,ON,0.05702,-0.55934,9.71348,0.001388,0.002692,-0.041471,13.98,50.04
2025-01-15T06:00:28.899Z,28.9,12.9744691,77.5953142,13.9,13.751,12.9744606,77.5953118,ON,-0.0675,-0.47392,9.67123,-0.000655,0.002947,-0.038258,13.751,50.04
2025-01-15T06:00:29.000Z,29.0,12.9744812,77.5953172,13.9,13.522,12.9744786,77.5953132,ON,-0.00907,-0.56801,9.95964,-0.000309,-0.0027,-0.038028,13.522,50.04
2025-01-15T06:00:29.100Z,29.1,12.9744934,77.5953201,13.9,13.293,12.9744985,77.595319,ON,0.03861,-0.55344,9.68932,-0.000162,-0.002289,-0.041268,13.293,50.04
2025-01-15T06:00:29.199Z,29.2,12.9745055,77.595323,13.9,13.063,12.9745008,77.5953247,ON,0.00932,-0.62198,9.71801,-5e-06,0.000929,-0.039856,13.063,50.04
2025-01-15T06:00:29.300Z,29.3,12.9745177,77.5953259,13.9,12.834,12.9745067,77.5953323,ON,0.08862,-0.47681,9.86441,0.001344,-0.001308,-0.039623,12.834,50.04
2025-01-15T06:00:29.399Z,29.4,12.9745299,77.5953286,13.9,12.605,12.9745242,77.5953293,ON,-0.07148,-0.52674,9.77454,0.001534,0.000365,-0.040919,12.605,50.04
2025-01-15T06:00:29.500Z,29.5,12.9745421,77.5953314,13.9,12.376,12.9745463,77.5953255,ON,-0.01324,-0.58288,9.8844,-0.000151,0.00054,-0.038949,12.376,50.04
2025-01-15T06:00:29.600Z,29.6,12.9745543,77.5953341,13.9,12.147,12.9745426,77.5953295,ON,0.0058,-0.50538,9.86726,0.002622,-0.000443,-0.039799,12.147,50.04
2025-01-15T06:00:29.699Z,29.7,12.9745665,77.5953367,13.9,11.918,12.974564,77.5953346,ON,-0.04152,-0.58316,9.79095,-0.001303,5.3e-05,-0.043637,11.918,50.04
2025-01-15T06:00:29.800Z,29.8,12.9745787,77.5953393,13.9,11.688,12.9745809,77.5953402,ON,0.02231,-0.57917,9.75918,0.001965,-0.000309,-0.036027,11.688,50.04
2025-01-15T06:00:29.899Z,29.9,12.974591,77.5953419,13.9,11.459,12.9745839,77.5953406,ON,-0.05637,-0.59534,9.731,-0.000961,0.001566,-0.042288,11.459,50.04
2025-01-15T06:00:30.000Z,30.0,12.9746032,77.5953444,13.9,11.23,,,OFF,0.0305,-0.62804,9.76945,0.00264,0.000924,-0.039455,11.23,50.04
2025-01-15T06:00:30.100Z,30.1,12.9746155,77.5953468,13.9187,11.001,,,OFF,0.21817,-0.52795,9.8728,0.002807,-0.002077,-0.040141,11.001,50.1072
2025-01-15T06:00:30.199Z,30.2,12.9746278,77.5953492,13.9373,10.772,,,OFF,0.21853,-0.52001,9.86581,0.002613,-0.001002,-0.042699,10.772,50.1744
2025-01-15T06:00:30.300Z,30.3,12.9746401,77.5953516,13.956,10.542,,,OFF,0.25029,-0.55828,9.75513,7.2e-05,-0.000865,-0.037988,10.542,50.2416
2025-01-15T06:00:30.399Z,30.4,12.9746525,77.5953539,13.9747,10.313,,,OFF,0.23117,-0.5434,9.86409,6.5e-05,0.002053,-0.044727,10.313,50.3088
2025-01-15T06:00:30.500Z,30.5,12.9746648,77.5953561,13.9933,10.084,,,OFF,0.12826,-0.56173,9.76865,-0.001901,0.00124,-0.041957,10.084,50.376
2025-01-15T06:00:30.600Z,30.6,12.9746772,77.5953584,14.012,9.855,,,OFF,0.19753,-0.55427,9.81577,-0.001658,-0.000386,-0.037546,9.855,50.4432
2025-01-15T06:00:30.699Z,30.7,12.9746897,77.5953605,14.0307,9.626,,,OFF,0.21384,-0.51308,9.80199,-0.003405,-0.000933,-0.040301,9.626,50.5104
2025-01-15T06:00:30.800Z,30.8,12.9747021,77.5953626,14.0493,9.397,,,OFF,0.25174,-0.50518,9.85248,-0.001713,0.000257,-0.040523,9.397,50.5776
2025-01-15T06:00:30.899Z,30.9,12.9747146,77.5953647,14.068,9.167,,,OFF,0.17449,-0.6244,9.85639,-6e-05,0.001609,-0.042923,9.167,50.6448
2025-01-15T06:00:31.000Z,31.0,12.9747271,77.5953667,14.0867,8.938,,,OFF,0.13032,-0.38115,9.72199,0.000575,0.000876,-0.041964,8.938,50.712
2025-01-15T06:00:31.100Z,31.1,12.9747396,77.5953687,14.1053,8.709,,,OFF,0.27305,-0.56749,9.82495,0.003637,-0.001582,-0.040975,8.709,50.7792
2025-01-15T06:00:31.199Z,31.2,12.9747522,77.5953706,14.124,8.48,,,OFF,0.16939,-0.63359,9.83758,0.000946,0.000367,-0.038688,8.48,50.8464
2025-01-15T06:00:31.300Z,31.3,12.9747647,77.5953725,14.1427,8.251,,,OFF,0.22995,-0.54877,9.78586,0.002441,-0.001393,-0.037207,8.251,50.9136
2025-01-15T06:00:31.399Z,31.4,12.9747773,77.5953743,14.1613,8.021,,,OFF,0.17702,-0.52821,9.99266,-0.00453,-0.000385,-0.040808,8.021,50.9808
2025-01-15T06:00:31.500Z,31.5,12.97479,77.5953761,14.18,7.792,,,OFF,0.27204,-0.58754,10.0829,-0.003056,0.000699,-0.040773,7.792,51.048
2025-01-15T06:00:31.600Z,31.6,12.9748026,77.5953778,14.1987,7.563,,,OFF,0.21192,-0.5962,9.7649,-0.003646,0.000216,-0.042996,7.563,51.1152
2025-01-15T06:00:31.699Z,31.7,12.9748153,77.5953795,14.2173,7.334,,,OFF,0.12118,-0.56435,9.79787,0.002054,-0.002706,-0.039158,7.334,51.1824
2025-01-15T06:00:31.800Z,31.8,12.974828,77.5953811,14.236,7.105,,,OFF,0.20279,-0.58456,9.72964,-0.000158,0.001768,-0.040748,7.105,51.2496
2025-01-15T06:00:31.899Z,31.9,12.9748407,77.5953827,14.2547,6.875,,,OFF,0.22903,-0.58388,9.98248,5.4e-05,-0.000351,-0.043222,6.875,51.3168
2025-01-15T06:00:32.000Z,32.0,12.9748534,77.5953842,14.2733,6.875,,,OFF,0.11531,0.01906,9.78726,0.000563,-0.001369,-0.000301,6.875,51.384
2025-01-15T06:00:32.100Z,32.1,12.9748662,77.5953858,14.292,6.875,,,OFF,0.15548,0.01476,9.78818,0.003729,-0.001376,0.002238,6.875,51.4512
2025-01-15T06:00:32.200Z,32.2,12.9748789,77.5953874,14.3107,6.875,,,OFF,0.13394,-0.02327,9.72585,0.002519,0.000874,0.000274,6.875,51.5184
2025-01-15T06:00:32.299Z,32.3,12.9748917,77.595389,14.3293,6.875,,,OFF,0.19839,-0.05422,9.95029,0.002779,-6.9e-05,2.7e-05,6.875,51.5856
2025-01-15T06:00:32.399Z,32.4,12.9749045,77.5953906,14.348,6.875,,,OFF,0.21912,-0.00876,9.78998,-0.000986,-0.000692,-0.000952,6.875,51.6528
2025-01-15T06:00:32.500Z,32.5,12.9749173,77.5953921,14.3667,6.875,,,OFF,0.22316,-0.01641,9.76716,-0.001254,-0.002999,0.00312,6.875,51.72
2025-01-15T06:00:32.600Z,32.6,12.9749301,77.5953937,14.3853,6.875,,,OFF,0.2121,0.04333,9.75701,0.002914,0.00029,0.002905,6.875,51.7872
2025-01-15T06:00:32.700Z,32.7,12.974943,77.5953953,14.404,6.875,,,OFF,0.186,-0.00223,9.7572,0.000155,0.00045,0.002985,6.875,51.8544
2025-01-15T06:00:32.799Z,32.8,12.9749558,77.5953969,14.4227,6.875,,,OFF,0.26365,0.0045,9.9319,-0.005435,-0.000941,0.000499,6.875,51.9216
2025-01-15T06:00:32.899Z,32.9,12.9749687,77.5953985,14.4413,6.875,,,OFF,0.23102,0.02116,9.80439,-0.000923,-0.0016,0.003804,6.875,51.9888
2025-01-15T06:00:33.000Z,33.0,12.9749816,77.5954001,14.46,6.875,,,OFF,0.24278,0.06539,9.81106,-0.001069,0.001109,-4.9e-05,6.875,52.056
2025-01-15T06:00:33.100Z,33.1,12.9749945,77.5954017,14.4787,6.875,,,OFF,0.18026,-0.00124,9.7467,-0.001743,-0.000485,-0.002771,6.875,52.1232
2025-01-15T06:00:33.200Z,33.2,12.9750075,77.5954033,14.4973,6.875,,,OFF,0.21658,0.04193,9.73305,-0.003655,0.000787,0.000477,6.875,52.1904
2025-01-15T06:00:33.299Z,33.3,12.9750204,77.5954049,14.516,6.875,,,OFF,0.18769,-0.06672,9.61823,0.003423,-0.000433,0.001009,6.875,52.2576
2025-01-15T06:00:33.399Z,33.4,12.9750334,77.5954065,14.5347,6.875,,,OFF,0.18313,0.02068,9.68217,-0.000891,-0.002711,-0.002174,6.875,52.3248
2025-01-15T06:00:33.500Z,33.5,12.9750464,77.5954081,14.5533,6.875,,,OFF,0.15122,-0.09033,9.76388,-0.001422,-0.002372,-0.000266,6.875,52.392
2025-01-15T06:00:33.600Z,33.6,12.9750594,77.5954097,14.572,6.875,,,OFF,0.1861,-0.04185,10.0112,0.001436,0.002243,-0.000657,6.875,52.4592
2025-01-15T06:00:33.700Z,33.7,12.9750724,77.5954113,14.5907,6.875,,,OFF,0.23135,0.03828,9.70815,-0.001364,0.00583,-0.000822,6.875,52.5264
2025-01-15T06:00:33.799Z,33.8,12.9750854,77.5954129,14.6093,6.875,,,OFF,0.21101,-0.01073,9.89314,-0.001989,-0.002011,0.002269,6.875,52.5936
2025-01-15T06:00:33.899Z,33.9,12.9750984,77.5954146,14.628,6.875,,,OFF,0.19659,-0.12388,9.81234,-0.000364,0.001421,0.000642,6.875,52.6608
2025-01-15T06:00:34.000Z,34.0,12.9751115,77.5954162,14.6467,6.875,,,OFF,0.20378,0.00437,9.83905,-0.002305,-0.00163,-0.001705,6.875,52.728
2025-01-15T06:00:34.100Z,34.1,12.9751246,77.5954178,14.6653,6.875,,,OFF,0.11961,0.03941,9.91776,0.001228,-0.001202,-0.001074,6.875,52.7952
2025-01-15T06:00:34.200Z,34.2,12.9751377,77.5954194,14.684,6.875,,,OFF,0.16467,0.05564,9.86266,0.003478,-0.001939,-0.000451,6.875,52.8624
2025-01-15T06:00:34.299Z,34.3,12.9751508,77.595421,14.7027,6.875,,,OFF,0.12363,-0.07086,9.79447,-0.000671,-0.001026,-0.003069,6.875,52.9296
2025-01-15T06:00:34.399Z,34.4,12.9751639,77.5954227,14.7213,6.875,,,OFF,0.19651,-0.01419,9.90149,0.001101,-0.002623,0.000791,6.875,52.9968
2025-01-15T06:00:34.500Z,34.5,12.9751771,77.5954243,14.74,6.875,,,OFF,0.15672,0.07663,9.80704,-0.001007,-0.000813,-0.003002,6.875,53.064
2025-01-15T06:00:34.600Z,34.6,12.9751902,77.5954259,14.7587,6.875,,,OFF,0.25039,0.10597,9.63702,-0.000504,-0.000221,-0.001189,6.875,53.1312
2025-01-15T06:00:34.700Z,34.7,12.9752034,77.5954275,14.7773,6.875,,,OFF,0.24754,0.06237,9.78547,0.004143,6.6e-05,-0.000484,6.875,53.1984
2025-01-15T06:00:34.799Z,34.8,12.9752166,77.5954292,14.796,6.875,,,OFF,0.20066,-0.0373,9.95531,0.001233,-0.00071,-0.000371,6.875,53.2656
2025-01-15T06:00:34.899Z,34.9,12.9752298,77.5954308,14.8147,6.875,,,OFF,0.14128,0.01313,9.68064,6e-06,-0.001034,0.001134,6.875,53.3328
2025-01-15T06:00:35.000Z,35.0,12.975243,77.5954324,14.8333,6.875,,,OFF,0.2388,0.03935,9.79774,-0.001419,-0.000599,-3.3e-05,6.875,53.4
2025-01-15T06:00:35.100Z,35.1,12.9752563,77.5954341,14.852,6.875,,,OFF,0.21106,-0.02841,9.71327,0.000347,0.002718,0.003745,6.875,53.4672
2025-01-15T06:00:35.200Z,35.2,12.9752696,77.5954357,14.8707,6.875,,,OFF,0.22633,-0.04951,9.95086,-0.001691,-0.001541,0.000855,6.875,53.5344
2025-01-15T06:00:35.299Z,35.3,12.9752828,77.5954374,14.8893,6.875,,,OFF,0.11765,0.04008,9.80464,0.000798,-0.001647,0.001693,6.875,53.6016
2025-01-15T06:00:35.399Z,35.4,12.9752961,77.595439,14.908,6.875,,,OFF,0.21232,-0.01817,9.90453,-0.005321,0.000725,-0.000215,6.875,53.6688
2025-01-15T06:00:35.500Z,35.5,12.9753094,77.5954407,14.9267,6.875,,,OFF,0.14692,0.00886,9.85998,-0.001474,-0.000239,-8.3e-05,6.875,53.736
2025-01-15T06:00:35.600Z,35.6,12.9753228,77.5954423,14.9453,6.875,,,OFF,0.20631,0.06134,9.76361,0.002634,-0.002608,0.000602,6.875,53.8032
2025-01-15T06:00:35.700Z,35.7,12.9753361,77.595444,14.964,6.875,,,OFF,0.10069,0.00359,9.88223,0.004046,9.9e-05,-0.001497,6.875,53.8704
2025-01-15T06:00:35.799Z,35.8,12.9753495,77.5954456,14.9827,6.875,,,OFF,0.23799,0.00206,9.81983,0.001834,0.002186,-0.003464,6.875,53.9376
2025-01-15T06:00:35.899Z,35.9,12.9753629,77.5954473,15.0013,6.875,,,OFF,0.18924,-0.00082,9.70304,-0.003248,-0.000134,-0.000927,6.875,54.0048
2025-01-15T06:00:36.000Z,36.0,12.9753763,77.5954489,15.02,6.875,,,OFF,0.15043,-0.00687,9.7749,3.5e-05,0.003154,-6e-05,6.875,54.072
2025-01-15T06:00:36.100Z,36.1,12.9753897,77.5954506,15.0387,6.875,,,OFF,0.28069,0.0622,9.90676,-0.001457,-0.000587,-0.001839,6.875,54.1392
2025-01-15T06:00:36.200Z,36.2,12.9754031,77.5954522,15.0573,6.875,,,OFF,0.20746,-0.00335,9.85417,0.000605,0.000336,-0.000714,6.875,54.2064
2025-01-15T06:00:36.299Z,36.3,12.9754165,77.5954539,15.076,6.875,,,OFF,0.13802,-0.02208,9.88166,-0.000328,-0.00012,0.001736,6.875,54.2736
2025-01-15T06:00:36.399Z,36.4,12.97543,77.5954556,15.0947,6.875,,,OFF,0.21105,-0.07374,9.80196,-0.001743,-0.000108,0.000781,6.875,54.3408
2025-01-15T06:00:36.500Z,36.5,12.9754435,77.5954572,15.1133,6.875,,,OFF,0.21214,0.08319,9.75992,-0.00059,0.001148,0.001924,6.875,54.408
2025-01-15T06:00:36.600Z,36.6,12.975457,77.5954589,15.132,6.875,,,OFF,0.1351,0.03434,9.87655,-0.000301,-0.000562,0.001465,6.875,54.4752
2025-01-15T06:00:36.700Z,36.7,12.9754705,77.5954606,15.1507,6.875,,,OFF,0.20803,0.02004,9.73682,-0.003445,-0.000188,-0.000542,6.875,54.5424
2025-01-15T06:00:36.799Z,36.8,12.975484,77.5954623,15.1693,6.875,,,OFF,0.20957,-0.03823,9.87347,0.000819,-0.00148,0.00189,6.875,54.6096
2025-01-15T06:00:36.899Z,36.9,12.9754976,77.5954639,15.188,6.875,,,OFF,0.16952,-0.03482,9.83509,-2.9e-05,-0.00181,0.00124,6.875,54.6768
2025-01-15T06:00:37.000Z,37.0,12.9755111,77.5954656,15.2067,6.875,,,OFF,0.18621,-0.03791,9.6346,0.000853,0.000198,0.000239,6.875,54.744
2025-01-15T06:00:37.100Z,37.1,12.9755247,77.5954673,15.2253,6.875,,,OFF,0.25551,-0.12453,9.93692,0.002728,-0.00196,0.002029,6.875,54.8112
2025-01-15T06:00:37.200Z,37.2,12.9755383,77.595469,15.244,6.875,,,OFF,0.14607,-0.05213,9.79986,0.003655,0.000723,0.0001,6.875,54.8784
2025-01-15T06:00:37.299Z,37.3,12.9755519,77.5954707,15.2627,6.875,,,OFF,0.23095,-0.03112,9.95975,0.003141,0.000858,-0.001577,6.875,54.9456
2025-01-15T06:00:37.399Z,37.4,12.9755655,77.5954723,15.2813,6.875,,,OFF,0.24027,0.01473,9.87437,0.002273,0.000873,-0.001805,6.875,55.0128
2025-01-15T06:00:37.500Z,37.5,12.9755792,77.595474,15.3,6.875,,,OFF,0.26118,0.01396,9.84242,0.00123,0.000623,0.001496,6.875,55.08
2025-01-15T06:00:37.600Z,37.6,12.9755928,77.5954757,15.3187,6.875,,,OFF,0.19654,-0.00888,9.75498,-0.001023,-0.000576,0.001979,6.875,55.1472
2025-01-15T06:00:37.700Z,37.7,12.9756065,77.5954774,15.3373,6.875,,,OFF,0.16982,-0.00555,9.79989,0.001068,0.001298,0.003949,6.875,55.2144
2025-01-15T06:00:37.799Z,37.8,12.9756202,77.5954791,15.356,6.875,,,OFF,0.11701,-0.0114,9.8673,-0.00337,0.003483,-0.000232,6.875,55.2816
2025-01-15T06:00:37.899Z,37.9,12.9756339,77.5954808,15.3747,6.875,,,OFF,0.14697,0.04854,9.5902,0.000424,-0.001983,-3e-05,6.875,55.3488
2025-01-15T06:00:38.000Z,38.0,12.9756477,77.5954825,15.3933,6.875,,,OFF,0.20537,0.03963,9.85113,0.004173,0.000124,-0.000684,6.875,55.416
2025-01-15T06:00:38.100Z,38.1,12.9756614,77.5954842,15.412,6.875,,,OFF,0.24797,-0.00327,9.85182,-0.007875,0.000906,-0.00015,6.875,55.4832
2025-01-15T06:00:38.200Z,38.2,12.9756752,77.5954859,15.4307,6.875,,,OFF,0.16492,-0.03282,9.90032,-0.004083,0.006298,0.002308,6.875,55.5504
2025-01-15T06:00:38.299Z,38.3,12.9756889,77.5954876,15.4493,6.875,,,OFF,0.20516,0.09502,9.83747,-0.00179,0.002054,-0.003272,6.875,55.6176
2025-01-15T06:00:38.399Z,38.4,12.9757027,77.5954893,15.468,6.875,,,OFF,0.21667,0.05991,9.8635,-0.002902,0.00041,-0.000246,6.875,55.6848
2025-01-15T06:00:38.500Z,38.5,12.9757166,77.595491,15.4867,6.875,,,OFF,0.14956,-0.1156,9.69145,-0.001001,0.002251,0.005506,6.875,55.752
2025-01-15T06:00:38.600Z,38.6,12.9757304,77.5954927,15.5053,6.875,,,OFF,0.22951,-0.03941,9.7679,0.002164,0.001228,0.000782,6.875,55.8192
2025-01-15T06:00:38.700Z,38.7,12.9757442,77.5954945,15.524,6.875,,,OFF,0.19857,0.05996,10.03359,1.9e-05,0.000318,0.001009,6.875,55.8864
2025-01-15T06:00:38.799Z,38.8,12.9757581,77.5954962,15.5427,6.875,,,OFF,0.16356,-0.10963,9.85937,-0.001467,0.002633,0.000365,6.875,55.9536
2025-01-15T06:00:38.899Z,38.9,12.975772,77.5954979,15.5613,6.875,,,OFF,0.26154,-0.04288,9.92312,-0.003263,0.001875,-0.000474,6.875,56.0208
2025-01-15T06:00:39.000Z,39.0,12.9757859,77.5954996,15.58,6.875,,,OFF,0.23354,-0.01791,9.87825,0.001005,0.000766,0.000885,6.875,56.088
2025-01-15T06:00:39.100Z,39.1,12.9757998,77.5955013,15.5987,6.875,,,OFF,0.27069,-0.02806,9.95034,-0.000708,0.002414,0.004679,6.875,56.1552
2025-01-15T06:00:39.200Z,39.2,12.9758137,77.5955031,15.6173,6.875,,,OFF,0.14675,-0.1078,9.82637,-0.001383,-0.001053,-0.000659,6.875,56.2224
2025-01-15T06:00:39.299Z,39.3,12.9758276,77.5955048,15.636,6.875,,,OFF,0.15998,0.07155,9.92254,0.002318,0.004624,-0.001542,6.875,56.2896
2025-01-15T06:00:39.399Z,39.4,12.9758416,77.5955065,15.6547,6.875,,,OFF,0.06183,0.10118,9.83505,-0.000111,-0.003606,-0.002703,6.875,56.3568
2025-01-15T06:00:39.500Z,39.5,12.9758556,77.5955082,15.6733,6.875,,,OFF,0.22126,-0.00716,9.59471,-0.001881,0.002098,0.002557,6.875,56.424
2025-01-15T06:00:39.600Z,39.6,12.9758696,77.59551,15.692,6.875,,,OFF,0.19737,0.1417,9.91267,0.003621,0.002667,0.001662,6.875,56.4912
2025-01-15T06:00:39.700Z,39.7,12.9758836,77.5955117,15.7107,6.875,,,OFF,0.11971,-0.08002,9.73587,0.000517,2e-06,0.000749,6.875,56.5584
2025-01-15T06:00:39.799Z,39.8,12.9758976,77.5955134,15.7293,6.875,,,OFF,0.18567,0.02389,9.90875,1.6e-05,-0.000576,-0.005243,6.875,56.6256
2025-01-15T06:00:39.899Z,39.9,12.9759117,77.5955152,15.748,6.875,,,OFF,0.23028,-0.03867,9.71909,0.001735,0.001837,0.00136,6.875,56.6928
2025-01-15T06:00:40.000Z,40.0,12.9759257,77.5955169,15.7667,6.875,,,OFF,0.23432,-0.0547,9.78708,-0.0011,0.00346,0.001728,6.875,56.76
2025-01-15T06:00:40.100Z,40.1,12.9759398,77.5955187,15.7853,6.875,,,OFF,0.17447,0.04207,9.84747,-0.000235,0.000934,0.001701,6.875,56.8272
2025-01-15T06:00:40.200Z,40.2,12.9759539,77.5955204,15.804,6.875,,,OFF,0.17956,-0.06252,9.84546,-0.000528,-0.002291,-0.001536,6.875,56.8944
2025-01-15T06:00:40.299Z,40.3,12.975968,77.5955222,15.8227,6.875,,,OFF,0.17419,0.00136,9.86617,-0.000425,0.0009,-0.000747,6.875,56.9616
2025-01-15T06:00:40.399Z,40.4,12.9759821,77.5955239,15.8413,6.875,,,OFF,0.21395,0.02015,9.86692,0.002874,-0.000566,-0.003187,6.875,57.0288
2025-01-15T06:00:40.500Z,40.5,12.9759963,77.5955256,15.86,6.875,,,OFF,0.18277,0.04047,9.81249,0.000636,-0.003445,-0.001668,6.875,57.096
2025-01-15T06:00:40.600Z,40.6,12.9760104,77.5955274,15.8787,6.875,,,OFF,0.2136,0.03889,9.73496,0.000734,-0.001422,-0.002305,6.875,57.1632
2025-01-15T06:00:40.700Z,40.7,12.9760246,77.5955292,15.8973,6.875,,,OFF,0.19022,0.01085,9.84964,0.00146,0.003354,0.001897,6.875,57.2304
2025-01-15T06:00:40.799Z,40.8,12.9760388,77.5955309,15.916,6.875,,,OFF,0.16862,0.04698,9.66325,0.000201,0.002107,0.001358,6.875,57.2976
2025-01-15T06:00:40.899Z,40.9,12.976053,77.5955327,15.9347,6.875,,,OFF,0.22808,0.0955,9.73593,0.00159,-0.000187,0.002229,6.875,57.3648
2025-01-15T06:00:41.000Z,41.0,12.9760673,77.5955344,15.9533,6.875,,,OFF,0.19255,0.0391,9.96468,0.001262,-0.00042,-0.000735,6.875,57.432
2025-01-15T06:00:41.100Z,41.1,12.9760815,77.5955362,15.972,6.875,,,OFF,0.15196,0.05191,9.94123,-0.000489,-0.003619,-0.001267,6.875,57.4992
2025-01-15T06:00:41.200Z,41.2,12.9760958,77.595538,15.9907,6.875,,,OFF,0.20837,-0.04734,9.61415,-0.000889,-0.00408,0.000651,6.875,57.5664
2025-01-15T06:00:41.299Z,41.3,12.97611,77.5955397,16.0093,6.875,,,OFF,0.16661,0.00301,9.93967,-0.001816,-0.004296,-5.7e-05,6.875,57.6336
2025-01-15T06:00:41.399Z,41.4,12.9761243,77.5955415,16.028,6.875,,,OFF,0.21011,-0.07148,9.77315,-0.000694,5.6e-05,-0.001231,6.875,57.7008
2025-01-15T06:00:41.500Z,41.5,12.9761387,77.5955433,16.0467,6.875,,,OFF,0.31984,-0.01312,9.82865,-0.00097,-0.005286,0.002762,6.875,57.768
2025-01-15T06:00:41.600Z,41.6,12.976153,77.595545,16.0653,6.875,,,OFF,0.02883,0.06784,9.67786,-0.002718,-0.000218,0.004392,6.875,57.8352
2025-01-15T06:00:41.700Z,41.7,12.9761673,77.5955468,16.084,6.875,,,OFF,0.20265,-0.00956,9.73323,0.001301,-0.00074,0.001428,6.875,57.9024
2025-01-15T06:00:41.799Z,41.8,12.9761817,77.5955486,16.1027,6.875,,,OFF,0.08849,0.02642,9.8418,-0.00272,-0.002065,-0.000295,6.875,57.9696
2025-01-15T06:00:41.899Z,41.9,12.9761961,77.5955504,16.1213,6.875,,,OFF,0.16234,0.0145,9.66653,-0.001769,0.004228,-0.001685,6.875,58.0368
2025-01-15T06:00:42.000Z,42.0,12.9762105,77.5955521,16.14,6.875,,,OFF,0.16536,-0.00885,9.78215,0.002414,-0.001144,0.00171,6.875,58.104
2025-01-15T06:00:42.100Z,42.1,12.9762249,77.5955539,16.1587,6.875,,,OFF,0.14389,0.03865,9.78859,-0.00035,-0.000177,0.0011,6.875,58.1712
2025-01-15T06:00:42.200Z,42.2,12.9762393,77.5955557,16.1773,6.875,,,OFF,0.12699,-0.04852,10.01372,0.001013,-0.000722,0.001284,6.875,58.2384
2025-01-15T06:00:42.299Z,42.3,12.9762537,77.5955575,16.196,6.875,,,OFF,0.18366,-0.11257,9.82613,-0.000244,0.000698,-0.001549,6.875,58.3056
2025-01-15T06:00:42.399Z,42.4,12.9762682,77.5955593,16.2147,6.875,,,OFF,0.17564,0.05711,9.79492,-0.000858,0.00073,-0.000788,6.875,58.3728
2025-01-15T06:00:42.500Z,42.5,12.9762827,77.5955611,16.2333,6.875,,,OFF,0.24006,-0.00873,9.84634,-0.001408,-0.002496,0.001439,6.875,58.44
2025-01-15T06:00:42.600Z,42.6,12.9762972,77.5955629,16.252,6.875,,,OFF,0.19977,0.03187,9.88367,-0.002939,0.00024,-0.004012,6.875,58.5072
2025-01-15T06:00:42.700Z,42.7,12.9763117,77.5955647,16.2707,6.875,,,OFF,0.21263,-0.05428,9.85673,0.001452,-0.001079,-4.6e-05,6.875,58.5744
2025-01-15T06:00:42.799Z,42.8,12.9763262,77.5955665,16.2893,6.875,,,OFF,0.24778,-0.08269,9.87436,0.000237,0.001896,-0.003304,6.875,58.6416
2025-01-15T06:00:42.899Z,42.9,12.9763408,77.5955683,16.308,6.875,,,OFF,0.18684,0.05521,9.94592,-0.001539,-0.000559,0.003683,6.875,58.7088
2025-01-15T06:00:43.000Z,43.0,12.9763553,77.5955701,16.3267,6.875,,,OFF,0.11568,-0.00229,9.82774,0.00035,-0.001868,0.001929,6.875,58.776
2025-01-15T06:00:43.100Z,43.1,12.9763699,77.5955719,16.3453,6.875,,,OFF,0.23109,0.09081,9.7307,-0.000963,0.002193,0.003631,6.875,58.8432
2025-01-15T06:00:43.200Z,43.2,12.9763845,77.5955737,16.364,6.875,,,OFF,0.18617,-0.0764,9.78839,0.001929,0.001356,0.002226,6.875,58.9104
2025-01-15T06:00:43.299Z,43.3,12.9763991,77.5955755,16.3827,6.875,,,OFF,0.28291,-0.02157,9.71956,-0.002405,-0.000246,0.002038,6.875,58.9776
2025-01-15T06:00:43.399Z,43.4,12.9764137,77.5955773,16.4013,6.875,,,OFF,0.27303,0.01094,9.81147,-0.000266,0.002453,-0.001524,6.875,59.0448
2025-01-15T06:00:43.500Z,43.5,12.9764284,77.5955791,16.42,6.875,,,OFF,0.18142,-0.00387,9.80728,0.003616,-0.001784,0.004911,6.875,59.112
2025-01-15T06:00:43.600Z,43.6,12.976443,77.5955809,16.4387,6.875,,,OFF,0.1539,-0.04102,9.74391,0.001297,-2.8e-05,0.002242,6.875,59.1792
2025-01-15T06:00:43.700Z,43.7,12.9764577,77.5955827,16.4573,6.875,,,OFF,0.14548,-0.08366,9.77291,0.00056,-0.00294,-0.000213,6.875,59.2464
2025-01-15T06:00:43.799Z,43.8,12.9764724,77.5955846,16.476,6.875,,,OFF,0.21345,-0.04033,9.7276,-0.00219,-0.000287,0.000913,6.875,59.3136
2025-01-15T06:00:43.899Z,43.9,12.9764871,77.5955864,16.4947,6.875,,,OFF,0.32404,0.05826,9.68383,-0.003074,-0.000221,0.003144,6.875,59.3808
2025-01-15T06:00:44.000Z,44.0,12.9765018,77.5955882,16.5133,6.875,,,OFF,0.21952,-0.02637,9.91016,0.002755,0.002923,-0.002133,6.875,59.448
2025-01-15T06:00:44.100Z,44.1,12.9765166,77.59559,16.532,6.875,,,OFF,0.20854,-0.06406,9.72945,-0.002557,-0.000524,-0.002872,6.875,59.5152
2025-01-15T06:00:44.200Z,44.2,12.9765313,77.5955919,16.5507,6.875,,,OFF,0.22541,-0.00062,9.72355,0.000971,0.003061,0.000691,6.875,59.5824
2025-01-15T06:00:44.299Z,44.3,12.9765461,77.5955937,16.5693,6.875,,,OFF,0.15748,-0.01419,9.79959,-0.001403,-0.003423,-0.000757,6.875,59.6496
2025-01-15T06:00:44.399Z,44.4,12.9765609,77.5955955,16.588,6.875,,,OFF,0.2488,-0.04136,9.61697,-0.000178,0.002206,-0.003445,6.875,59.7168
2025-01-15T06:00:44.500Z,44.5,12.9765757,77.5955973,16.6067,6.875,,,OFF,0.19617,0.02057,9.86369,0.001114,0.001216,-0.003168,6.875,59.784
2025-01-15T06:00:44.600Z,44.6,12.9765906,77.5955992,16.6253,6.875,,,OFF,0.21747,0.06888,9.78783,0.000743,-0.002029,0.002606,6.875,59.8512
2025-01-15T06:00:44.700Z,44.7,12.9766054,77.595601,16.644,6.875,,,OFF,0.15575,0.08247,9.77201,0.001356,-0.001067,0.003756,6.875,59.9184
2025-01-15T06:00:44.799Z,44.8,12.9766203,77.5956029,16.6627,6.875,,,OFF,0.08806,0.01847,9.60206,-0.00241,0.003784,0.001816,6.875,59.9856
2025-01-15T06:00:44.899Z,44.9,12.9766351,77.5956047,16.6813,6.875,,,OFF,0.08614,-0.0003,9.74803,0.00114,0.003701,0.001308,6.875,60.0528
2025-01-15T06:00:45.000Z,45.0,12.97665,77.5956065,16.7,6.875,,,OFF,0.2084,0.0254,9.70075,0.001402,0.001842,-0.001225,6.875,60.12
2025-01-15T06:00:45.100Z,45.1,12.9766649,77.5956084,16.7,6.875,,,OFF,-0.03212,0.0725,9.83091,-0.002275,-0.000848,-0.000915,6.875,60.12
2025-01-15T06:00:45.200Z,45.2,12.9766798,77.5956102,16.7,6.875,,,OFF,-0.00323,-0.00364,9.78507,0.003348,0.001665,0.002966,6.875,60.12
2025-01-15T06:00:45.299Z,45.3,12.9766947,77.5956121,16.7,6.875,,,OFF,-0.08473,0.00556,9.92748,0.001451,-0.001359,-0.001512,6.875,60.12
2025-01-15T06:00:45.399Z,45.4,12.9767096,77.5956139,16.7,6.875,,,OFF,0.048,-0.01063,9.87483,0.000313,-0.000235,0.000241,6.875,60.12
2025-01-15T06:00:45.500Z,45.5,12.9767245,77.5956158,16.7,6.875,,,OFF,-0.04148,0.08506,9.86482,0.002799,-0.001058,-0.001081,6.875,60.12
2025-01-15T06:00:45.600Z,45.6,12.9767394,77.5956176,16.7,6.875,,,OFF,-0.01596,-0.04308,9.87782,0.001425,-0.001026,-0.000639,6.875,60.12
2025-01-15T06:00:45.700Z,45.7,12.9767543,77.5956194,16.7,6.875,,,OFF,0.01883,-0.03763,9.76907,0.003121,-0.001493,-0.001034,6.875,60.12
2025-01-15T06:00:45.799Z,45.8,12.9767692,77.5956213,16.7,6.875,,,OFF,0.12524,-0.10632,9.69156,0.003595,-0.000819,0.001,6.875,60.12
2025-01-15T06:00:45.899Z,45.9,12.9767841,77.5956231,16.7,6.875,,,OFF,0.10598,-0.03585,9.75085,0.000822,-0.000152,-0.00105,6.875,60.12
2025-01-15T06:00:46.000Z,46.0,12.976799,77.595625,16.7,6.875,,,OFF,-0.00667,-0.06641,9.85657,0.001669,-0.000323,-0.000448,6.875,60.12
2025-01-15T06:00:46.100Z,46.1,12.9768139,77.5956268,16.7,6.875,,,OFF,0.02744,-0.02691,9.77919,-0.000137,0.002944,-9.8e-05,6.875,60.12
2025-01-15T06:00:46.200Z,46.2,12.9768288,77.5956287,16.7,6.875,,,OFF,-0.00569,-0.00821,9.77162,-0.00193,-0.001838,0.001721,6.875,60.12
2025-01-15T06:00:46.299Z,46.3,12.9768437,77.5956305,16.7,6.875,,,OFF,-0.02846,0.00462,9.76237,-0.002656,-0.00093,0.002794,6.875,60.12
2025-01-15T06:00:46.399Z,46.4,12.9768586,77.5956323,16.7,6.875,,,OFF,-0.02073,-0.03382,9.76721,-0.000669,0.000457,-0.000823,6.875,60.12
2025-01-15T06:00:46.500Z,46.5,12.9768734,77.5956342,16.7,6.875,,,OFF,-0.00488,-0.02455,9.84575,0.000623,0.000423,0.001266,6.875,60.12
2025-01-15T06:00:46.600Z,46.6,12.9768883,77.595636,16.7,6.875,,,OFF,-0.00496,0.06065,9.85662,0.002976,-0.000159,0.000544,6.875,60.12
2025-01-15T06:00:46.700Z,46.7,12.9769032,77.5956379,16.7,6.875,,,OFF,-0.03411,0.00078,9.8918,-0.000731,0.002984,5.1e-05,6.875,60.12
2025-01-15T06:00:46.799Z,46.8,12.9769181,77.5956397,16.7,6.875,,,OFF,0.07916,-0.05244,9.78231,-0.000993,0.002021,0.001284,6.875,60.12
2025-01-15T06:00:46.899Z,46.9,12.976933,77.5956416,16.7,6.875,,,OFF,-0.00382,-0.02279,9.80732,0.001449,0.001671,-0.000119,6.875,60.12
2025-01-15T06:00:47.000Z,47.0,12.9769479,77.5956434,16.7,6.875,,,OFF,-0.02235,0.0051,9.82293,0.000505,-0.000907,0.003481,6.875,60.12
2025-01-15T06:00:47.100Z,47.1,12.9769628,77.5956452,16.7,6.875,,,OFF,-0.03144,0.07562,9.94937,0.001894,0.003748,0.001112,6.875,60.12
2025-01-15T06:00:47.200Z,47.2,12.9769777,77.5956471,16.7,6.875,,,OFF,-0.01583,-0.02615,9.74289,0.001675,-0.002961,-0.002845,6.875,60.12
2025-01-15T06:00:47.299Z,47.3,12.9769926,77.5956489,16.7,6.875,,,OFF,0.07662,0.05064,9.85143,0.001847,0.001549,-0.000374,6.875,60.12
2025-01-15T06:00:47.399Z,47.4,12.9770075,77.5956508,16.7,6.875,,,OFF,-0.07343,0.06415,9.85462,-0.002752,0.000285,-0.000937,6.875,60.12
2025-01-15T06:00:47.500Z,47.5,12.9770224,77.5956526,16.7,6.875,,,OFF,-0.00577,-0.0164,9.86512,-0.000417,-0.00231,0.001346,6.875,60.12
2025-01-15T06:00:47.600Z,47.6,12.9770373,77.5956545,16.7,6.875,,,OFF,0.02429,-0.07129,9.85091,0.001775,-0.000305,0.000375,6.875,60.12
2025-01-15T06:00:47.700Z,47.7,12.9770522,77.5956563,16.7,6.875,,,OFF,-0.03822,-0.0875,9.86218,-0.000176,0.000859,-0.00047,6.875,60.12
2025-01-15T06:00:47.799Z,47.8,12.9770671,77.5956581,16.7,6.875,,,OFF,-0.01302,0.00811,9.80367,0.001733,-0.000848,-0.002889,6.875,60.12
2025-01-15T06:00:47.899Z,47.9,12.977082,77.59566,16.7,6.875,,,OFF,0.00721,-0.06516,9.5566,-0.002194,-0.000877,-0.001592,6.875,60.12
2025-01-15T06:00:48.000Z,48.0,12.9770969,77.5956618,16.7,6.875,,,OFF,-0.07683,-0.01123,9.93165,0.001659,1.6e-05,0.001842,6.875,60.12
2025-01-15T06:00:48.100Z,48.1,12.9771117,77.5956637,16.7,6.875,,,OFF,-0.02202,-0.0441,9.87785,-0.002167,0.000668,-5.1e-05,6.875,60.12
2025-01-15T06:00:48.200Z,48.2,12.9771266,77.5956655,16.7,6.875,,,OFF,-0.01814,-0.0229,9.92372,-0.003179,0.000538,-0.000577,6.875,60.12
2025-01-15T06:00:48.299Z,48.3,12.9771415,77.5956674,16.7,6.875,,,OFF,-0.03707,0.00195,9.84158,-0.00012,0.00049,0.00283,6.875,60.12
2025-01-15T06:00:48.399Z,48.4,12.9771564,77.5956692,16.7,6.875,,,OFF,-0.03004,0.0209,9.63614,0.000914,-0.003734,0.001263,6.875,60.12
2025-01-15T06:00:48.500Z,48.5,12.9771713,77.595671,16.7,6.875,,,OFF,-0.02376,0.00821,9.66445,4.8e-05,0.001648,0.00124,6.875,60.12
2025-01-15T06:00:48.600Z,48.6,12.9771862,77.5956729,16.7,6.875,,,OFF,-0.00086,-0.00032,9.92454,0.001472,-0.00125,-0.00116,6.875,60.12
2025-01-15T06:00:48.700Z,48.7,12.9772011,77.5956747,16.7,6.875,,,OFF,-0.03399,-0.00178,9.69393,-0.004317,-0.000437,0.000506,6.875,60.12
2025-01-15T06:00:48.799Z,48.8,12.977216,77.5956766,16.7,6.875,,,OFF,0.00932,0.05425,9.68075,-0.001026,-0.002885,0.000492,6.875,60.12
2025-01-15T06:00:48.899Z,48.9,12.9772309,77.5956784,16.7,6.875,,,OFF,-0.00523,-0.02404,9.81414,-0.001414,-0.002044,0.003161,6.875,60.12
2025-01-15T06:00:49.000Z,49.0,12.9772458,77.5956803,16.7,6.875,,,OFF,0.04052,-0.00921,9.65586,-0.000429,0.001149,0.00034,6.875,60.12
2025-01-15T06:00:49.100Z,49.1,12.9772607,77.5956821,16.7,6.875,,,OFF,0.05046,0.06134,9.80155,-0.000936,-0.000989,-0.000827,6.875,60.12
2025-01-15T06:00:49.200Z,49.2,12.9772756,77.5956839,16.7,6.875,,,OFF,0.04523,-0.02121,9.64192,0.00093,-0.000198,-0.000934,6.875,60.12
2025-01-15T06:00:49.299Z,49.3,12.9772905,77.5956858,16.7,6.875,,,OFF,-0.09818,0.0585,9.87964,-0.002274,0.000304,-0.002167,6.875,60.12
2025-01-15T06:00:49.399Z,49.4,12.9773054,77.5956876,16.7,6.875,,,OFF,-0.06803,-0.10494,9.88793,0.00176,-0.00062,-0.00012,6.875,60.12
2025-01-15T06:00:49.500Z,49.5,12.9773203,77.5956895,16.7,6.875,,,OFF,0.08775,-0.03777,9.69152,0.000255,0.001099,-0.000594,6.875,60.12
2025-01-15T06:00:49.600Z,49.6,12.9773352,77.5956913,16.7,6.875,,,OFF,-0.0713,-0.03836,9.8785,0.00143,-0.003341,-0.002445,6.875,60.12
2025-01-15T06:00:49.700Z,49.7,12.9773501,77.5956932,16.7,6.875,,,OFF,-0.04926,-0.00127,10.03068,-0.000572,0.000124,-0.001594,6.875,60.12
2025-01-15T06:00:49.799Z,49.8,12.9773649,77.595695,16.7,6.875,,,OFF,0.12927,-0.0301,9.75883,0.000312,-0.002649,0.001618,6.875,60.12
2025-01-15T06:00:49.899Z,49.9,12.9773798,77.5956968,16.7,6.875,,,OFF,-0.00042,-0.04214,9.75042,-0.003788,-0.001111,-0.004549,6.875,60.12
2025-01-15T06:00:50.000Z,50.0,12.9773947,77.5956987,16.7,6.875,12.9773925,77.5956962,ON,-0.02945,-0.02914,9.7258,0.002468,0.002878,-0.000339,6.875,60.12
2025-01-15T06:00:50.100Z,50.1,12.9774096,77.5957005,16.7,6.875,12.9774153,77.595699,ON,-0.01512,-0.04144,9.87975,0.001236,-0.002581,0.00032,6.875,60.12
2025-01-15T06:00:50.200Z,50.2,12.9774245,77.5957024,16.7,6.875,12.9774219,77.5956979,ON,-0.00128,-0.09594,9.76661,0.003779,0.000871,-0.002271,6.875,60.12
2025-01-15T06:00:50.299Z,50.3,12.9774394,77.5957042,16.7,6.875,12.9774422,77.5957047,ON,-0.01604,-0.02929,9.81007,-0.001185,-0.000346,0.001479,6.875,60.12
2025-01-15T06:00:50.399Z,50.4,12.9774543,77.5957061,16.7,6.875,12.9774584,77.5956996,ON,-0.02342,0.08035,9.98965,0.00074,0.003219,0.002416,6.875,60.12
2025-01-15T06:00:50.500Z,50.5,12.9774692,77.5957079,16.7,6.875,12.9774685,77.5956979,ON,-0.00306,-0.06411,9.82364,0.003492,0.000497,-0.00157,6.875,60.12
2025-01-15T06:00:50.600Z,50.6,12.9774841,77.5957097,16.7,6.875,12.9774783,77.5956999,ON,-0.0953,0.08134,9.8956,-0.000262,-0.000306,-0.000104,6.875,60.12
2025-01-15T06:00:50.700Z,50.7,12.977499,77.5957116,16.7,6.875,12.9774989,77.5957185,ON,0.01951,-0.09912,9.91607,-0.00386,-0.000812,-0.002772,6.875,60.12
2025-01-15T06:00:50.799Z,50.8,12.9775139,77.5957134,16.7,6.875,12.9775141,77.5957071,ON,-0.06889,-0.05233,9.89138,-0.000371,0.001334,0.002721,6.875,60.12
2025-01-15T06:00:50.899Z,50.9,12.9775288,77.5957153,16.7,6.875,12.97753,77.5957181,ON,-0.04847,-0.00423,9.69512,0.001108,0.001812,0.001932,6.875,60.12
2025-01-15T06:00:51.000Z,51.0,12.9775437,77.5957171,16.7,6.875,12.9775435,77.5957216,ON,-0.00727,-0.02807,9.86021,0.001452,0.004407,0.001458,6.875,60.12
2025-01-15T06:00:51.100Z,51.1,12.9775586,77.595719,16.7,6.875,12.9775531,77.5957141,ON,-0.06509,0.00387,9.70003,0.002725,-0.000583,0.001284,6.875,60.12
2025-01-15T06:00:51.200Z,51.2,12.9775735,77.5957208,16.7,6.875,12.9775742,77.5957225,ON,-0.05183,-0.00167,9.76726,-0.000203,0.000249,0.001363,6.875,60.12
2025-01-15T06:00:51.299Z,51.3,12.9775884,77.5957226,16.7,6.875,12.977586,77.5957268,ON,0.01646,0.08194,9.47874,-0.001285,0.002517,-0.005042,6.875,60.12
2025-01-15T06:00:51.399Z,51.4,12.9776033,77.5957245,16.7,6.875,12.9776107,77.5957249,ON,-0.10211,0.03628,9.70474,-0.001826,0.002929,-0.000774,6.875,60.12
2025-01-15T06:00:51.500Z,51.5,12.9776181,77.5957263,16.7,6.875,12.9776133,77.5957364,ON,0.04645,-0.01673,9.73105,-0.000408,0.003155,-0.001965,6.875,60.12
2025-01-15T06:00:51.600Z,51.6,12.977633,77.5957282,16.7,6.875,12.9776267,77.5957345,ON,-0.01411,0.00502,9.86249,-0.00078,-0.004848,-0.000424,6.875,60.12
2025-01-15T06:00:51.700Z,51.7,12.9776479,77.59573,16.7,6.875,12.9776541,77.5957409,ON,-0.00589,-0.00143,9.94655,0.001191,0.000591,-0.003958,6.875,60.12
2025-01-15T06:00:51.799Z,51.8,12.9776628,77.5957319,16.7,6.875,12.9776607,77.5957329,ON,-0.0757,-0.0183,9.98085,-0.000514,-0.002869,-0.003774,6.875,60.12
2025-01-15T06:00:51.899Z,51.9,12.9776777,77.5957337,16.7,6.875,12.9776777,77.5957308,ON,-0.04343,0.01138,9.83848,0.000349,0.000701,-0.002458,6.875,60.12
2025-01-15T06:00:52.000Z,52.0,12.9776926,77.5957355,16.7,6.875,12.9776894,77.5957339,ON,-0.00269,0.04948,9.73718,-0.001555,0.002975,0.000317,6.875,60.12
2025-01-15T06:00:52.100Z,52.1,12.9777075,77.5957374,16.7,6.875,12.9777005,77.5957358,ON,-0.06181,-0.05685,9.67657,-0.001592,0.004119,0.002021,6.875,60.12
2025-01-15T06:00:52.200Z,52.2,12.9777224,77.5957392,16.7,6.875,12.9777293,77.5957447,ON,-0.00674,0.02017,9.82028,-0.002136,-0.002325,0.001801,6.875,60.12
2025-01-15T06:00:52.299Z,52.3,12.9777373,77.5957411,16.7,6.875,12.9777312,77.5957421,ON,0.03261,0.03764,9.84693,-0.002401,0.001081,-0.000277,6.875,60.12
2025-01-15T06:00:52.399Z,52.4,12.9777522,77.5957429,16.7,6.875,12.9777473,77.595733,ON,0.02256,-0.07762,9.63927,0.003496,-0.002403,-0.00084,6.875,60.12
2025-01-15T06:00:52.500Z,52.5,12.9777671,77.5957448,16.7,6.875,12.9777674,77.5957451,ON,-0.05097,-0.03542,9.89057,-0.000558,-4.6e-05,-0.004325,6.875,60.12
2025-01-15T06:00:52.600Z,52.6,12.977782,77.5957466,16.7,6.875,12.9777791,77.5957509,ON,-0.03646,-0.04758,9.84749,0.001197,0.000667,-0.001133,6.875,60.12
2025-01-15T06:00:52.700Z,52.7,12.9777969,77.5957484,16.7,6.875,12.9778006,77.5957566,ON,0.0585,-0.07817,10.10295,-0.002651,-0.002452,0.000609,6.875,60.12
2025-01-15T06:00:52.799Z,52.8,12.9778118,77.5957503,16.7,6.875,12.9778113,77.5957521,ON,0.06558,0.04653,9.72065,0.000144,0.002022,0.002106,6.875,60.12
2025-01-15T06:00:52.899Z,52.9,12.9778267,77.5957521,16.7,6.875,12.9778323,77.5957562,ON,0.0354,-0.02568,9.67818,0.000845,-0.000908,0.002489,6.875,60.12
2025-01-15T06:00:53.000Z,53.0,12.9778416,77.595754,16.7,6.875,12.9778372,77.5957521,ON,-0.0214,0.04835,9.88514,4.6e-05,0.000584,0.00323,6.875,60.12
2025-01-15T06:00:53.100Z,53.1,12.9778564,77.5957558,16.7,6.875,12.9778476,77.5957596,ON,0.054,0.06071,9.89025,-0.001548,-0.001078,0.001324,6.875,60.12
2025-01-15T06:00:53.200Z,53.2,12.9778713,77.5957577,16.7,6.875,12.9778684,77.5957567,ON,-0.07526,-0.05962,9.84467,-0.000852,-0.001517,-0.000376,6.875,60.12
2025-01-15T06:00:53.299Z,53.3,12.9778862,77.5957595,16.7,6.875,12.9778877,77.5957582,ON,0.00863,0.00442,9.78485,-2.3e-05,-0.001775,-0.001003,6.875,60.12
2025-01-15T06:00:53.399Z,53.4,12.9779011,77.5957613,16.7,6.875,12.9778919,77.5957555,ON,-0.05935,-0.01994,9.92303,-1.8e-05,0.000301,-0.001885,6.875,60.12
2025-01-15T06:00:53.500Z,53.5,12.977916,77.5957632,16.7,6.875,12.9779175,77.5957717,ON,-0.00436,-0.04124,9.69341,0.000526,-0.001883,0.001427,6.875,60.12
2025-01-15T06:00:53.600Z,53.6,12.9779309,77.595765,16.7,6.875,12.9779259,77.5957568,ON,0.024,-0.06469,9.87061,0.002075,-0.001186,0.000417,6.875,60.12
2025-01-15T06:00:53.700Z,53.7,12.9779458,77.5957669,16.7,6.875,12.9779528,77.5957646,ON,0.07992,-0.01643,9.71623,0.000195,0.00045,0.002269,6.875,60.12
2025-01-15T06:00:53.799Z,53.8,12.9779607,77.5957687,16.7,6.875,12.9779651,77.5957706,ON,0.03281,0.00904,9.88921,-0.001037,-0.002163,0.000417,6.875,60.12
2025-01-15T06:00:53.899Z,53.9,12.9779756,77.5957706,16.7,6.875,12.977989,77.5957746,ON,-0.035,0.0697,9.62355,-0.000504,0.000795,-0.001346,6.875,60.12
2025-01-15T06:00:54.000Z,54.0,12.9779905,77.5957724,16.7,6.875,12.9779875,77.5957716,ON,-0.02713,-0.03921,9.70158,-0.00312,-0.001933,-0.000203,6.875,60.12
2025-01-15T06:00:54.100Z,54.1,12.9780054,77.5957742,16.7,6.875,12.9780104,77.5957709,ON,-0.06058,0.08027,9.69567,0.000189,-0.001873,-0.001438,6.875,60.12
2025-01-15T06:00:54.200Z,54.2,12.9780203,77.5957761,16.7,6.875,12.9780222,77.5957784,ON,0.06355,0.03344,9.8254,0.001249,-0.00206,0.002421,6.875,60.12
2025-01-15T06:00:54.299Z,54.3,12.9780352,77.5957779,16.7,6.875,12.9780378,77.5957804,ON,0.02993,-0.07399,9.69661,0.000265,0.00029,0.00115,6.875,60.12
2025-01-15T06:00:54.399Z,54.4,12.9780501,77.5957798,16.7,6.875,12.9780506,77.5957789,ON,0.06289,0.01748,9.88467,0.00239,0.002528,0.000635,6.875,60.12
2025-01-15T06:00:54.500Z,54.5,12.978065,77.5957816,16.7,6.875,12.9780686,77.595783,ON,0.05363,0.11403,9.70551,-0.001505,0.003167,0.000372,6.875,60.12
2025-01-15T06:00:54.600Z,54.6,12.9780799,77.5957835,16.7,6.875,12.9780777,77.59578,ON,0.04687,0.02802,10.01077,-0.000182,0.001803,0.003308,6.875,60.12
2025-01-15T06:00:54.700Z,54.7,12.9780948,77.5957853,16.7,6.875,12.9780876,77.59578,ON,0.01357,-0.02863,9.76785,-0.001322,-0.000296,-0.001808,6.875,60.12
2025-01-15T06:00:54.799Z,54.8,12.9781096,77.5957871,16.7,6.875,12.9781032,77.5957891,ON,0.00624,0.04894,9.86219,0.000848,0.001506,-0.00183,6.875,60.12
2025-01-15T06:00:54.899Z,54.9,12.9781245,77.595789,16.7,6.875,12.978122,77.5957904,ON,0.04674,0.03233,9.7888,-0.000373,0.0005,-0.002313,6.875,60.12
2025-01-15T06:00:55.000Z,55.0,12.9781394,77.5957908,16.7,6.875,12.9781437,77.5957947,ON,0.04645,0.04967,9.90979,-0.003768,0.000451,-0.00286,6.875,60.12
2025-01-15T06:00:55.100Z,55.1,12.9781543,77.5957927,16.7,6.875,12.9781496,77.595792,ON,0.05915,0.01656,9.83314,0.003571,0.000482,-0.001899,6.875,60.12
2025-01-15T06:00:55.200Z,55.2,12.9781692,77.5957945,16.7,6.875,12.9781623,77.5957902,ON,0.00559,-0.07703,9.85382,0.000618,-0.00144,0.000208,6.875,60.12
2025-01-15T06:00:55.299Z,55.3,12.9781841,77.5957964,16.7,6.875,12.9781867,77.5957932,ON,0.03664,-0.03584,9.86875,0.002915,0.000644,-0.002547,6.875,60.12
2025-01-15T06:00:55.399Z,55.4,12.978199,77.5957982,16.7,6.875,12.9781995,77.5957986,ON,-0.04306,-0.06297,9.77184,0.001737,0.001636,0.0024,6.875,60.12
2025-01-15T06:00:55.500Z,55.5,12.9782139,77.5958,16.7,6.875,12.9782137,77.5958099,ON,-0.04231,0.02204,9.78584,0.002983,6.5e-05,-0.002064,6.875,60.12
2025-01-15T06:00:55.600Z,55.6,12.9782288,77.5958019,16.7,6.875,12.97823,77.5957963,ON,-0.04361,0.04632,9.80797,0.001711,-0.001747,0.002594,6.875,60.12
2025-01-15T06:00:55.700Z,55.7,12.9782437,77.5958037,16.7,6.875,12.9782428,77.5957939,ON,-0.04479,-0.06987,9.66362,0.001021,0.000731,0.001182,6.875,60.12
2025-01-15T06:00:55.799Z,55.8,12.9782586,77.5958056,16.7,6.875,12.9782549,77.5958082,ON,-0.0734,-0.02414,9.79412,-0.001141,0.000201,-4.5e-05,6.875,60.12
2025-01-15T06:00:55.899Z,55.9,12.9782735,77.5958074,16.7,6.875,12.9782758,77.5958089,ON,0.04776,-0.02401,9.87515,0.000555,0.000486,0.000267,6.875,60.12
2025-01-15T06:00:56.000Z,56.0,12.9782884,77.5958093,16.7,6.875,12.9782776,77.5958189,ON,-0.04577,-0.03982,9.77777,-0.00262,0.003492,-0.001239,6.875,60.12
2025-01-15T06:00:56.100Z,56.1,12.9783033,77.5958111,16.7,6.875,12.9782998,77.595807,ON,0.02185,0.06979,9.83728,-0.001548,0.002646,0.000567,6.875,60.12
2025-01-15T06:00:56.200Z,56.2,12.9783182,77.595813,16.7,6.875,12.9783145,77.5958126,ON,0.00657,0.01185,9.81016,4.8e-05,0.003726,0.005667,6.875,60.12
2025-01-15T06:00:56.299Z,56.3,12.9783331,77.5958148,16.7,6.875,12.9783339,77.5958102,ON,-0.05251,0.04066,9.64759,-0.000364,0.00079,0.000363,6.875,60.12
2025-01-15T06:00:56.399Z,56.4,12.9783479,77.5958166,16.7,6.875,12.9783459,77.5958258,ON,0.03981,-0.02354,9.88833,-0.000368,-0.001033,-0.000815,6.875,60.12
2025-01-15T06:00:56.500Z,56.5,12.9783628,77.5958185,16.7,6.875,12.9783688,77.5958157,ON,-0.00357,0.051,9.84041,0.000481,-0.001331,0.004662,6.875,60.12
2025-01-15T06:00:56.600Z,56.6,12.9783777,77.5958203,16.7,6.875,12.9783818,77.5958085,ON,0.06521,-0.0643,9.6728,-0.001396,0.002516,-0.000545,6.875,60.12
2025-01-15T06:00:56.700Z,56.7,12.9783926,77.5958222,16.7,6.875,12.9783937,77.5958138,ON,0.05377,-0.01336,9.68107,0.00065,0.00098,0.00017,6.875,60.12
2025-01-15T06:00:56.799Z,56.8,12.9784075,77.595824,16.7,6.875,12.978414,77.5958269,ON,0.07511,-0.00274,9.82096,0.001728,0.002317,-0.000666,6.875,60.12
2025-01-15T06:00:56.899Z,56.9,12.9784224,77.5958259,16.7,6.875,12.9784318,77.5958264,ON,0.00024,0.02209,9.72443,-0.003292,0.004112,0.002129,6.875,60.12
2025-01-15T06:00:57.000Z,57.0,12.9784373,77.5958277,16.7,6.875,12.9784327,77.5958284,ON,0.03118,-0.0244,9.95331,-0.000989,0.001985,-0.001261,6.875,60.12
2025-01-15T06:00:57.100Z,57.1,12.9784522,77.5958295,16.7,6.875,12.9784547,77.5958373,ON,0.02372,-0.0244,9.83217,0.00145,-0.000856,-0.00079,6.875,60.12
2025-01-15T06:00:57.200Z,57.2,12.9784671,77.5958314,16.7,6.875,12.9784759,77.5958384,ON,-0.03316,-0.06592,9.68166,-0.00223,-0.000568,-0.000151,6.875,60.12
2025-01-15T06:00:57.299Z,57.3,12.978482,77.5958332,16.7,6.875,12.9784751,77.595834,ON,-0.14516,0.00699,9.97078,-0.00243,-0.005759,0.000333,6.875,60.12
2025-01-15T06:00:57.399Z,57.4,12.9784969,77.5958351,16.7,6.875,12.9785004,77.595833,ON,0.01144,0.06455,9.97894,0.001196,-0.002472,0.000339,6.875,60.12
2025-01-15T06:00:57.500Z,57.5,12.9785118,77.5958369,16.7,6.875,12.9785068,77.5958368,ON,-0.01207,-0.02855,9.96312,-0.000455,-0.002962,0.000759,6.875,60.12
2025-01-15T06:00:57.600Z,57.6,12.9785267,77.5958388,16.7,6.875,12.9785301,77.595839,ON,-0.03874,-0.02162,9.75112,-0.001009,-0.001404,-0.000442,6.875,60.12
2025-01-15T06:00:57.700Z,57.7,12.9785416,77.5958406,16.7,6.875,12.9785348,77.5958418,ON,-0.03912,0.04385,9.84813,0.003012,-0.002729,0.002822,6.875,60.12
2025-01-15T06:00:57.799Z,57.8,12.9785565,77.5958424,16.7,6.875,12.9785559,77.5958455,ON,0.04449,0.04806,9.81616,0.000909,-0.000183,0.001455,6.875,60.12
2025-01-15T06:00:57.899Z,57.9,12.9785714,77.5958443,16.7,6.875,12.9785669,77.5958463,ON,0.07697,0.10032,9.91681,0.002923,0.001047,0.002108,6.875,60.12
2025-01-15T06:00:58.000Z,58.0,12.9785863,77.5958461,16.7,6.875,12.978596,77.5958459,ON,-0.07939,-0.00852,9.8286,-0.001648,-0.002396,-0.000986,6.875,60.12
2025-01-15T06:00:58.100Z,58.1,12.9786011,77.595848,16.7,6.875,12.978595,77.5958525,ON,0.08523,0.03377,9.67054,0.000414,-0.001717,0.000559,6.875,60.12
2025-01-15T06:00:58.200Z,58.2,12.978616,77.5958498,16.7,6.875,12.9786119,77.5958547,ON,0.03512,-0.01603,9.86045,0.000126,0.003455,-0.003803,6.875,60.12
2025-01-15T06:00:58.299Z,58.3,12.9786309,77.5958517,16.7,6.875,12.978633,77.5958579,ON,-0.01834,-0.02495,9.82773,-0.001839,-0.001073,-0.002048,6.875,60.12
2025-01-15T06:00:58.399Z,58.4,12.9786458,77.5958535,16.7,6.875,12.9786449,77.595843,ON,-0.03014,0.02792,9.77215,-0.000824,0.001798,0.003156,6.875,60.12
2025-01-15T06:00:58.500Z,58.5,12.9786607,77.5958553,16.7,6.875,12.978657,77.5958614,ON,-0.08752,-0.04229,9.86358,0.000515,0.000238,0.00173,6.875,60.12
2025-01-15T06:00:58.600Z,58.6,12.9786756,77.5958572,16.7,6.875,12.9786746,77.595861,ON,-0.02445,-0.03137,9.62251,0.001353,-0.001736,0.002015,6.875,60.12
2025-01-15T06:00:58.700Z,58.7,12.9786905,77.595859,16.7,6.875,12.9786956,77.5958579,ON,0.00436,0.00989,9.7895,-0.002917,0.002891,-0.001136,6.875,60.12
2025-01-15T06:00:58.799Z,58.8,12.9787054,77.5958609,16.7,6.875,12.9787081,77.5958623,ON,0.01448,0.01095,9.90121,-0.001741,0.001984,0.000332,6.875,60.12
2025-01-15T06:00:58.899Z,58.9,12.9787203,77.5958627,16.7,6.875,12.9787205,77.5958606,ON,-0.00227,0.02896,9.6928,-0.003441,-0.00055,0.001404,6.875,60.12
2025-01-15T06:00:59.000Z,59.0,12.9787352,77.5958646,16.7,6.875,12.9787337,77.5958714,ON,0.0648,0.07013,9.95523,0.000527,0.001134,-0.001364,6.875,60.12
2025-01-15T06:00:59.100Z,59.1,12.9787501,77.5958664,16.7,6.875,12.9787367,77.5958684,ON,-0.03859,-0.01006,9.56146,0.001795,-0.000403,-0.001181,6.875,60.12
2025-01-15T06:00:59.200Z,59.2,12.978765,77.5958682,16.7,6.875,12.9787592,77.5958642,ON,-0.04234,-0.04855,9.6687,-0.00042,-0.000676,0.001719,6.875,60.12
2025-01-15T06:00:59.299Z,59.3,12.9787799,77.5958701,16.7,6.875,12.9787711,77.5958679,ON,-0.04457,0.01705,9.80476,0.001698,0.003676,2e-06,6.875,60.12
2025-01-15T06:00:59.399Z,59.4,12.9787948,77.5958719,16.7,6.875,12.9787974,77.5958682,ON,-0.00634,0.00124,10.02389,-0.002279,-0.000268,3.9e-05,6.875,60.12
2025-01-15T06:00:59.500Z,59.5,12.9788097,77.5958738,16.7,6.875,12.9788059,77.5958755,ON,0.00071,0.00598,9.73778,0.001469,-0.001861,-0.000744,6.875,60.12
2025-01-15T06:00:59.600Z,59.6,12.9788246,77.5958756,16.7,6.875,12.9788288,77.5958826,ON,-0.03751,0.03114,9.80147,0.002088,0.000223,0.003394,6.875,60.12
2025-01-15T06:00:59.700Z,59.7,12.9788395,77.5958775,16.7,6.875,12.9788471,77.5958726,ON,-0.01634,-0.03753,9.80192,-0.003635,-0.003347,0.00204,6.875,60.12
2025-01-15T06:00:59.799Z,59.8,12.9788543,77.5958793,16.7,6.875,12.978856,77.5958831,ON,-0.04523,-0.05255,9.79064,0.002766,0.000151,0.000366,6.875,60.12
2025-01-15T06:00:59.899Z,59.9,12.9788692,77.5958811,16.7,6.875,12.9788751,77.595883,ON,0.0091,0.02137,9.79093,0.003147,-0.000209,-0.001441,6.875,60.12
2025-01-15T06:01:00.000Z,60.0,12.9788841,77.5958831,16.7,7.277,12.9788875,77.5958878,ON,-0.02359,1.2052,9.91765,-0.006703,-0.003449,0.070801,7.277,60.12
2025-01-15T06:01:00.100Z,60.1,12.978899,77.5958851,16.7,7.678,12.9788943,77.5958936,ON,0.0162,1.16392,9.81618,-0.00076,-0.001284,0.070244,7.678,60.12
2025-01-15T06:01:00.200Z,60.2,12.9789138,77.5958873,16.7,8.079,12.9789189,77.5958796,ON,0.01204,1.14652,9.81861,-0.001504,0.000288,0.067856,8.079,60.12
2025-01-15T06:01:00.299Z,60.3,12.9789287,77.5958896,16.7,8.48,12.9789286,77.5958883,ON,-0.08326,1.18991,9.52881,-0.000751,-0.002981,0.070514,8.48,60.12
2025-01-15T06:01:00.399Z,60.4,12.9789435,77.595892,16.7,8.881,12.9789418,77.595896,ON,-0.01011,1.15835,9.92206,-0.00093,-5.9e-05,0.072853,8.881,60.12
2025-01-15T06:01:00.500Z,60.5,12.9789583,77.5958944,16.7,9.282,12.9789616,77.5959044,ON,0.02295,1.14252,9.91741,0.001845,-0.000546,0.07108,9.282,60.12
2025-01-15T06:01:00.600Z,60.6,12.9789731,77.595897,16.7,9.683,12.9789727,77.5958995,ON,0.00163,1.1625,9.97888,0.000912,-0.002661,0.070417,9.683,60.12
2025-01-15T06:01:00.700Z,60.7,12.9789879,77.5958997,16.7,10.084,12.9789864,77.5959013,ON,0.012,1.18731,9.64016,-0.003136,0.002801,0.069947,10.084,60.12
2025-01-15T06:01:00.799Z,60.8,12.9790026,77.5959025,16.7,10.485,12.9790093,77.5959052,ON,-0.02665,1.08457,9.86119,0.001035,0.003502,0.069595,10.485,60.12
2025-01-15T06:01:00.899Z,60.9,12.9790173,77.5959054,16.7,10.886,12.9790177,77.5958964,ON,-0.03034,1.1813,9.77492,-0.001748,0.002836,0.073205,10.886,60.12
2025-01-15T06:01:01.000Z,61.0,12.9790321,77.5959084,16.7,11.287,12.9790267,77.5959089,ON,-0.02142,1.24324,9.83375,0.001195,-0.00187,0.072655,11.287,60.12
2025-01-15T06:01:01.100Z,61.1,12.9790467,77.5959116,16.7,11.688,12.9790453,77.5959209,ON,0.05462,1.13645,9.86269,0.000487,-0.000443,0.0715,11.688,60.12
2025-01-15T06:01:01.200Z,61.2,12.9790614,77.5959148,16.7,12.089,12.9790613,77.5959149,ON,-0.03158,1.13178,9.81766,0.000357,0.002152,0.067291,12.089,60.12
2025-01-15T06:01:01.299Z,61.3,12.9790761,77.5959181,16.7,12.49,12.9790766,77.5959261,ON,-0.0339,1.11683,9.71734,0.001583,-0.002532,0.070039,12.49,60.12
2025-01-15T06:01:01.399Z,61.4,12.9790907,77.5959216,16.7,12.892,12.9790873,77.5959187,ON,-0.01531,1.15027,9.77324,-0.000108,0.000538,0.069093,12.892,60.12
2025-01-15T06:01:01.500Z,61.5,12.9791053,77.5959251,16.7,13.293,12.9791076,77.5959227,ON,-0.0227,1.17109,9.63838,-0.001642,-0.001336,0.067954,13.293,60.12
2025-01-15T06:01:01.600Z,61.6,12.9791199,77.5959287,16.7,13.694,12.9791187,77.5959251,ON,-0.04556,1.2198,10.01825,0.001988,0.000596,0.072248,13.694,60.12
2025-01-15T06:01:01.700Z,61.7,12.9791344,77.5959325,16.7,14.095,12.979136,77.5959312,ON,0.00558,1.15221,9.58952,-0.001683,-0.001658,0.070967,14.095,60.12
2025-01-15T06:01:01.799Z,61.8,12.9791489,77.5959363,16.7,14.496,12.9791465,77.5959273,ON,-0.00143,1.18333,9.88693,0.000729,0.004781,0.068265,14.496,60.12
2025-01-15T06:01:01.899Z,61.9,12.9791634,77.5959403,16.7,14.897,12.97917,77.5959449,ON,-0.03177,1.1626,9.73539,-0.000248,-0.000886,0.06911,14.897,60.12
2025-01-15T06:01:02.000Z,62.0,12.9791779,77.5959444,16.7,15.298,12.9791779,77.5959392,ON,0.05623,1.21291,9.74047,0.001725,-0.002103,0.066432,15.298,60.12
2025-01-15T06:01:02.100Z,62.1,12.9791923,77.5959485,16.7,15.699,12.9791939,77.5959513,ON,-0.03697,1.19531,10.00605,0.006025,-0.001746,0.070653,15.699,60.12
2025-01-15T06:01:02.200Z,62.2,12.9792068,77.5959528,16.7,16.1,12.9792006,77.595967,ON,-0.02179,1.212,9.81945,-0.002114,-0.000414,0.067293,16.1,60.12
2025-01-15T06:01:02.299Z,62.3,12.9792211,77.5959572,16.7,16.501,12.9792179,77.5959558,ON,0.01125,1.05541,9.80344,0.005106,-0.001903,0.070652,16.501,60.12
2025-01-15T06:01:02.399Z,62.4,12.9792355,77.5959616,16.7,16.902,12.9792334,77.5959475,ON,-0.04977,1.13483,9.8947,-7e-05,-0.000441,0.071346,16.902,60.12
2025-01-15T06:01:02.500Z,62.5,12.9792498,77.5959662,16.7,17.303,12.9792505,77.5959654,ON,0.03341,1.10019,9.78938,0.002507,-0.00428,0.068419,17.303,60.12
2025-01-15T06:01:02.600Z,62.6,12.9792641,77.5959709,16.7,17.704,12.9792649,77.595972,ON,-0.01682,1.1905,9.72135,0.001959,0.000389,0.07363,17.704,60.12
2025-01-15T06:01:02.700Z,62.7,12.9792784,77.5959757,16.7,18.105,12.9792826,77.5959784,ON,0.0708,1.12884,9.78068,-0.0035,0.001741,0.073308,18.105,60.12
2025-01-15T06:01:02.799Z,62.8,12.9792926,77.5959806,16.7,18.507,12.9792902,77.5959745,ON,0.05624,1.13213,9.75956,0.003079,-0.000717,0.069627,18.507,60.12
2025-01-15T06:01:02.899Z,62.9,12.9793068,77.5959856,16.7,18.908,12.9793149,77.5959885,ON,-0.0532,1.24426,9.63586,0.002015,0.00098,0.068953,18.908,60.12
2025-01-15T06:01:03.000Z,63.0,12.979321,77.5959907,16.7,19.309,12.9793171,77.5959851,ON,0.08645,1.17522,9.74694,0.001148,0.002409,0.070638,19.309,60.12
2025-01-15T06:01:03.100Z,63.1,12.9793351,77.5959958,16.7,19.71,12.9793386,77.5960006,ON,0.00294,1.18483,9.79846,-0.001985,-0.002534,0.070901,19.71,60.12
2025-01-15T06:01:03.200Z,63.2,12.9793492,77.5960011,16.7,20.111,12.9793456,77.596001,ON,-0.01239,1.21751,9.838,0.000613,-0.000573,0.069724,20.111,60.12
2025-01-15T06:01:03.299Z,63.3,12.9793632,77.5960065,16.7,20.512,12.9793615,77.5960078,ON,-0.0862,1.16801,9.84676,0.000787,-0.002155,0.069158,20.512,60.12
2025-01-15T06:01:03.399Z,63.4,12.9793772,77.596012,16.7,20.913,12.9793753,77.5960093,ON,-0.06084,1.11468,9.81091,0.000771,0.000296,0.068257,20.913,60.12
2025-01-15T06:01:03.500Z,63.5,12.9793912,77.5960176,16.7,21.314,12.9793931,77.5960166,ON,-0.02478,1.12274,9.75906,0.001434,-0.000368,0.069754,21.314,60.12
2025-01-15T06:01:03.600Z,63.6,12.9794051,77.5960233,16.7,21.715,12.9794001,77.5960373,ON,-0.11325,1.0676,9.75752,0.000399,0.003547,0.071028,21.715,60.12
2025-01-15T06:01:03.700Z,63.7,12.979419,77.5960291,16.7,22.116,12.9794205,77.5960337,ON,0.00475,1.07125,9.83548,0.000435,0.004339,0.068558,22.116,60.12
2025-01-15T06:01:03.799Z,63.8,12.9794329,77.596035,16.7,22.517,12.9794392,77.5960282,ON,0.07664,1.17563,9.8937,0.001408,0.001356,0.070195,22.517,60.12
2025-01-15T06:01:03.899Z,63.9,12.9794467,77.596041,16.7,22.918,12.9794434,77.5960402,ON,-0.03827,1.16337,9.64911,0.000344,0.001955,0.072404,22.918,60.12
2025-01-15T06:01:04.000Z,64.0,12.9794605,77.5960471,16.7,23.319,12.9794671,77.5960479,ON,-0.00771,1.15624,9.84924,0.001434,0.000676,0.067309,23.319,60.12
2025-01-15T06:01:04.099Z,64.1,12.9794742,77.5960533,16.7,23.72,12.9794811,77.5960557,ON,0.04953,1.1716,9.7839,0.003875,-0.00214,0.066624,23.72,60.12
2025-01-15T06:01:04.200Z,64.2,12.9794879,77.5960596,16.7,24.122,12.9794979,77.5960608,ON,-0.02142,1.13975,9.60939,0.003735,0.001411,0.07102,24.122,60.12
2025-01-15T06:01:04.299Z,64.3,12.9795016,77.596066,16.7,24.523,12.9795057,77.5960614,ON,0.02292,1.22329,9.58951,0.001192,0.001494,0.070203,24.523,60.12
2025-01-15T06:01:04.400Z,64.4,12.9795152,77.5960725,16.7,24.924,12.9795107,77.5960716,ON,-0.02291,1.18714,9.75679,0.001529,-0.001037,0.06896,24.924,60.12
2025-01-15T06:01:04.500Z,64.5,12.9795287,77.596079,16.7,25.325,12.9795346,77.5960782,ON,0.02658,1.10413,9.96209,-0.002904,0.000194,0.069551,25.325,60.12
2025-01-15T06:01:04.599Z,64.6,12.9795422,77.5960857,16.7,25.726,12.9795384,77.5960844,ON,0.06176,1.25595,9.78634,-0.000715,-0.003756,0.07343,25.726,60.12
2025-01-15T06:01:04.700Z,64.7,12.9795557,77.5960925,16.7,26.127,12.9795504,77.596088,ON,0.00524,1.2057,9.96233,0.004349,0.001508,0.06904,26.127,60.12
2025-01-15T06:01:04.799Z,64.8,12.9795691,77.5960994,16.7,26.528,12.9795659,77.5960985,ON,0.04022,1.21674,9.87169,-0.003789,-0.001132,0.072913,26.528,60.12
2025-01-15T06:01:04.900Z,64.9,12.9795825,77.5961064,16.7,26.929,12.9795798,77.596106,ON,0.13634,1.1653,9.95234,0.003677,0.001516,0.06913,26.929,60.12
2025-01-15T06:01:05.000Z,65.0,12.9795958,77.5961134,16.7,27.33,12.9795844,77.5961091,ON,0.03217,1.1986,9.92723,-0.002212,0.000399,0.0659,27.33,60.12
2025-01-15T06:01:05.099Z,65.1,12.9796091,77.5961206,16.7,27.731,12.9796047,77.5961232,ON,-0.10911,1.20984,9.99306,-0.002872,-0.000518,0.073437,27.731,60.12
2025-01-15T06:01:05.200Z,65.2,12.9796223,77.5961278,16.7,28.132,12.9796248,77.5961298,ON,0.00538,1.10041,9.79632,0.002573,0.000174,0.071443,28.132,60.12
2025-01-15T06:01:05.299Z,65.3,12.9796355,77.5961352,16.7,28.533,12.9796337,77.5961308,ON,-0.02156,1.11635,9.67377,-4e-05,-0.000458,0.068119,28.533,60.12
2025-01-15T06:01:05.400Z,65.4,12.9796487,77.5961426,16.7,28.934,12.9796521,77.596138,ON,0.02128,1.19392,9.9766,0.000684,0.001579,0.070149,28.934,60.12
2025-01-15T06:01:05.500Z,65.5,12.9796617,77.5961502,16.7,29.335,12.9796547,77.5961545,ON,0.08397,1.16279,10.01938,0.001848,0.004002,0.069638,29.335,60.12
2025-01-15T06:01:05.599Z,65.6,12.9796748,77.5961578,16.7,29.737,12.9796703,77.5961581,ON,-0.03631,1.17892,9.78584,0.000329,-0.00018,0.068051,29.737,60.12
2025-01-15T06:01:05.700Z,65.7,12.9796877,77.5961656,16.7,30.138,12.9796851,77.5961719,ON,-0.00318,1.10196,9.60832,-0.000645,0.000558,0.06764,30.138,60.12
2025-01-15T06:01:05.799Z,65.8,12.9797007,77.5961734,16.7,30.539,12.9796917,77.5961762,ON,0.15971,1.2126,9.71034,-0.000235,-0.000238,0.067456,30.539,60.12
2025-01-15T06:01:05.900Z,65.9,12.9797135,77.5961813,16.7,30.94,12.9797065,77.5961806,ON,0.03951,1.18164,9.74167,0.001019,0.001043,0.068035,30.94,60.12
2025-01-15T06:01:06.000Z,66.0,12.9797263,77.5961893,16.7,31.341,12.9797202,77.5961925,ON,0.05681,1.18927,9.92792,0.002934,-0.003057,0.070957,31.341,60.12
2025-01-15T06:01:06.099Z,66.1,12.9797391,77.5961974,16.7,31.742,12.9797457,77.5962031,ON,0.07136,1.13962,9.87817,0.001553,-0.001196,0.070381,31.742,60.12
2025-01-15T06:01:06.200Z,66.2,12.9797518,77.5962056,16.7,32.143,12.9797451,77.5962013,ON,0.01638,1.22157,9.80992,0.003068,0.002979,0.068034,32.143,60.12
2025-01-15T06:01:06.299Z,66.3,12.9797644,77.5962139,16.7,32.544,12.9797639,77.5962114,ON,0.04116,1.20491,9.73063,0.001848,-0.002641,0.072356,32.544,60.12
2025-01-15T06:01:06.400Z,66.4,12.979777,77.5962222,16.7,32.945,12.9797648,77.5962213,ON,-0.0354,1.2028,9.83526,-0.004383,-0.002691,0.068826,32.945,60.12
2025-01-15T06:01:06.500Z,66.5,12.9797896,77.5962307,16.7,33.346,12.9797955,77.5962389,ON,0.0341,1.24015,9.73469,0.000833,0.000254,0.06784,33.346,60.12
2025-01-15T06:01:06.599Z,66.6,12.979802,77.5962393,16.7,33.747,12.9798003,77.5962375,ON,0.0228,1.19377,9.75516,-0.001064,-0.003801,0.071011,33.747,60.12
2025-01-15T06:01:06.700Z,66.7,12.9798145,77.5962479,16.7,34.148,12.9798139,77.5962478,ON,0.02729,1.14423,9.71362,-0.001204,-0.000687,0.070435,34.148,60.12
2025-01-15T06:01:06.799Z,66.8,12.9798268,77.5962566,16.7,34.549,12.9798238,77.5962544,ON,-0.06648,1.14862,9.63529,-0.001322,0.00108,0.070343,34.549,60.12
2025-01-15T06:01:06.900Z,66.9,12.9798391,77.5962654,16.7,34.95,12.9798383,77.5962643,ON,0.04501,1.11008,9.85422,-0.001433,0.000556,0.069696,34.95,60.12
2025-01-15T06:01:07.000Z,67.0,12.9798513,77.5962744,16.7,35.351,12.9798486,77.5962759,ON,-0.03231,1.10835,9.7617,-0.002509,0.00029,0.068784,35.351,60.12
2025-01-15T06:01:07.099Z,67.1,12.9798635,77.5962834,16.7,35.753,12.9798572,77.5962852,ON,0.02009,1.15977,9.78077,0.001827,-0.000542,0.070516,35.753,60.12
2025-01-15T06:01:07.200Z,67.2,12.9798756,77.5962924,16.7,36.154,12.97987,77.5962952,ON,-0.00715,1.19491,9.78269,-0.001506,-0.002404,0.069587,36.154,60.12
2025-01-15T06:01:07.299Z,67.3,12.9798877,77.5963016,16.7,36.555,12.9798854,77.5962951,ON,0.06254,1.22028,9.60654,-0.004278,-0.003039,0.070313,36.555,60.12
2025-01-15T06:01:07.400Z,67.4,12.9798997,77.5963109,16.7,36.956,12.9799131,77.5963049,ON,-0.01586,1.23565,9.76047,0.002232,0.001868,0.069942,36.956,60.12
2025-01-15T06:01:07.500Z,67.5,12.9799116,77.5963202,16.7,37.357,12.979916,77.5963249,ON,-0.07014,1.16027,9.74709,5.9e-05,-0.002427,0.068007,37.357,60.12
2025-01-15T06:01:07.599Z,67.6,12.9799235,77.5963296,16.7,37.758,12.9799237,77.5963296,ON,0.06928,1.17952,9.95324,0.002621,0.002276,0.06293,37.758,60.12
2025-01-15T06:01:07.700Z,67.7,12.9799352,77.5963391,16.7,38.159,12.9799314,77.5963415,ON,-0.06616,1.14261,9.87686,9.5e-05,-0.000698,0.073465,38.159,60.12
2025-01-15T06:01:07.799Z,67.8,12.979947,77.5963487,16.7,38.56,12.9799449,77.5963543,ON,-0.00248,1.17396,9.77415,-0.001681,-0.000443,0.067269,38.56,60.12
2025-01-15T06:01:07.900Z,67.9,12.9799586,77.5963584,16.7,38.961,12.9799617,77.596359,ON,-0.022,1.20872,9.70578,-0.003935,0.000843,0.067245,38.961,60.12
2025-01-15T06:01:08.000Z,68.0,12.9799703,77.5963681,16.7,38.961,12.9799633,77.5963689,ON,0.04832,-0.03893,9.72078,0.003013,-0.002825,0.001696,38.961,60.12
2025-01-15T06:01:08.099Z,68.1,12.979982,77.5963778,16.7,38.961,12.9799841,77.5963741,ON,-0.00682,-0.043,9.74339,-0.000306,-0.001414,-0.003295,38.961,60.12
2025-01-15T06:01:08.200Z,68.2,12.9799936,77.5963875,16.7,38.961,12.9799972,77.5963844,ON,0.03983,-0.0077,10.09128,0.001116,-0.002693,-0.002744,38.961,60.12
2025-01-15T06:01:08.299Z,68.3,12.9800053,77.5963971,16.7,38.961,12.9800008,77.596395,ON,-0.08263,-0.0563,9.81151,-0.003126,-0.0002,0.000466,38.961,60.12
2025-01-15T06:01:08.400Z,68.4,12.980017,77.5964068,16.7,38.961,12.9800119,77.5964098,ON,0.00425,0.05467,9.87647,-0.000425,-0.000315,0.000924,38.961,60.12
2025-01-15T06:01:08.500Z,68.5,12.9800286,77.5964165,16.7,38.961,12.9800305,77.596408,ON,0.04633,-0.02805,9.9234,0.000358,-0.001299,-0.0,38.961,60.12
2025-01-15T06:01:08.599Z,68.6,12.9800403,77.5964262,16.7,38.961,12.9800475,77.5964224,ON,-0.08548,-0.01278,9.93594,0.003176,0.002065,-0.004241,38.961,60.12
2025-01-15T06:01:08.700Z,68.7,12.980052,77.5964359,16.7,38.961,12.9800508,77.5964335,ON,-0.00882,-0.05475,9.7825,-0.002368,0.00464,0.00012,38.961,60.12
2025-01-15T06:01:08.799Z,68.8,12.9800636,77.5964455,16.7,38.961,12.980061,77.5964393,ON,0.04789,0.02917,9.9262,0.000693,-0.000937,-0.001456,38.961,60.12
2025-01-15T06:01:08.900Z,68.9,12.9800753,77.5964552,16.7,38.961,12.9800715,77.5964532,ON,0.03427,-0.02758,9.83843,0.001506,-0.000908,0.001957,38.961,60.12
2025-01-15T06:01:09.000Z,69.0,12.980087,77.5964649,16.7,38.961,12.9800891,77.5964668,ON,-0.0013,0.00867,9.72396,-0.001677,0.000501,0.001789,38.961,60.12
2025-01-15T06:01:09.099Z,69.1,12.9800986,77.5964746,16.7,38.961,12.9800975,77.5964771,ON,-0.01154,-0.03914,9.81125,0.000769,-0.001378,-0.001188,38.961,60.12
2025-01-15T06:01:09.200Z,69.2,12.9801103,77.5964843,16.7,38.961,12.9801078,77.5964852,ON,-0.07375,0.01372,9.83616,0.000411,-0.001124,0.00056,38.961,60.12
2025-01-15T06:01:09.299Z,69.3,12.980122,77.5964939,16.7,38.961,12.9801164,77.5964901,ON,0.03995,-0.06643,9.74555,-0.001156,0.001299,-0.00288,38.961,60.12
2025-01-15T06:01:09.400Z,69.4,12.9801336,77.5965036,16.7,38.961,12.9801307,77.5964982,ON,0.08281,-0.01382,9.75806,0.000227,0.001728,-0.004146,38.961,60.12
2025-01-15T06:01:09.500Z,69.5,12.9801453,77.5965133,16.7,38.961,12.9801399,77.5965144,ON,-0.03149,-0.07212,9.73911,0.000313,0.000651,0.00392,38.961,60.12
2025-01-15T06:01:09.599Z,69.6,12.9801569,77.596523,16.7,38.961,12.9801488,77.5965156,ON,-0.06039,0.04865,9.72041,-0.003038,0.001625,-0.00148,38.961,60.12
2025-01-15T06:01:09.700Z,69.7,12.9801686,77.5965327,16.7,38.961,12.9801742,77.5965337,ON,-0.03309,0.04469,9.89159,0.003004,-0.000827,-0.000637,38.961,60.12
2025-01-15T06:01:09.799Z,69.8,12.9801803,77.5965423,16.7,38.961,12.9801876,77.5965479,ON,0.01286,-0.0425,9.70527,-0.002862,-0.001982,-0.000414,38.961,60.12
2025-01-15T06:01:09.900Z,69.9,12.9801919,77.596552,16.7,38.961,12.980186,77.5965556,ON,-0.12893,-0.04006,9.74198,0.001217,0.001045,-0.002462,38.961,60.12
2025-01-15T06:01:10.000Z,70.0,12.9802036,77.5965617,16.7,38.961,12.9802048,77.5965565,ON,0.01457,-0.06099,9.82281,0.002937,0.00408,0.002173,38.961,60.12
2025-01-15T06:01:10.099Z,70.1,12.9802152,77.5965713,16.613,38.961,12.9802101,77.5965687,ON,-0.91666,-0.03051,9.63522,-0.001261,0.002236,0.004469,38.961,59.8068
2025-01-15T06:01:10.200Z,70.2,12.9802268,77.5965809,16.526,38.961,12.9802289,77.5965819,ON,-0.83635,-0.07903,9.72542,0.00161,-0.000466,-0.000736,38.961,59.4936
2025-01-15T06:01:10.299Z,70.3,12.9802382,77.5965904,16.439,38.961,12.9802425,77.5965809,ON,-0.81164,-0.0406,9.86633,1e-06,0.001457,0.001985,38.961,59.1804
2025-01-15T06:01:10.400Z,70.4,12.9802497,77.5965999,16.352,38.961,12.9802446,77.5966041,ON,-0.84468,0.07127,9.75719,0.002375,0.001457,-0.000884,38.961,58.8672
2025-01-15T06:01:10.500Z,70.5,12.980261,77.5966093,16.265,38.961,12.980266,77.5966075,ON,-0.82434,-0.00502,9.82081,0.000136,0.002028,-0.000173,38.961,58.554
2025-01-15T06:01:10.599Z,70.6,12.9802723,77.5966187,16.178,38.961,12.9802752,77.5966217,ON,-0.91296,0.0462,9.95729,0.001022,0.000812,-0.001704,38.961,58.2408
2025-01-15T06:01:10.700Z,70.7,12.9802836,77.596628,16.091,38.961,12.98029,77.5966204,ON,-0.86279,0.07749,9.7411,0.001079,-0.001453,0.001317,38.961,57.9276
2025-01-15T06:01:10.799Z,70.8,12.9802947,77.5966373,16.004,38.961,12.9802877,77.5966353,ON,-0.90189,0.00508,9.63988,0.003015,0.00062,-0.000978,38.961,57.6144
2025-01-15T06:01:10.900Z,70.9,12.9803059,77.5966465,15.917,38.961,12.9803133,77.5966464,ON,-0.85718,0.01441,9.96908,0.000315,-0.002135,0.000179,38.961,57.3012
2025-01-15T06:01:11.000Z,71.0,12.9803169,77.5966557,15.83,38.961,12.980319,77.5966556,ON,-0.90248,-0.04041,9.64031,0.000962,-0.001669,-0.001285,38.961,56.988
2025-01-15T06:01:11.099Z,71.1,12.9803279,77.5966648,15.743,38.961,12.9803305,77.5966702,ON,-0.92178,-0.01756,9.77061,0.001012,-0.00208,-0.001605,38.961,56.6748
2025-01-15T06:01:11.200Z,71.2,12.9803388,77.5966739,15.656,38.961,12.9803409,77.5966709,ON,-0.92143,-0.00056,9.71837,-0.000547,0.002568,-0.000353,38.961,56.3616
2025-01-15T06:01:11.299Z,71.3,12.9803497,77.5966829,15.569,38.961,12.980349,77.5966806,ON,-0.94606,0.00887,9.91169,0.002525,0.005707,-0.000591,38.961,56.0484
2025-01-15T06:01:11.400Z,71.4,12.9803605,77.5966919,15.482,38.961,12.9803615,77.5966864,ON,-0.7774,0.04958,9.90608,0.001193,-0.000265,-0.005076,38.961,55.7352
2025-01-15T06:01:11.500Z,71.5,12.9803713,77.5967008,15.395,38.961,12.9803775,77.5967042,ON,-0.85712,-0.04132,9.89675,0.000597,0.000401,-0.002214,38.961,55.422
2025-01-15T06:01:11.599Z,71.6,12.980382,77.5967097,15.308,38.961,12.9803764,77.5967093,ON,-0.87531,-0.052,9.98346,-0.000877,-0.000131,0.00052,38.961,55.1088
2025-01-15T06:01:11.700Z,71.7,12.9803926,77.5967185,15.221,38.961,12.9804,77.5967147,ON,-0.87929,-0.06373,9.91489,0.000852,0.000317,0.000569,38.961,54.7956
2025-01-15T06:01:11.799Z,71.8,12.9804032,77.5967273,15.134,38.961,12.9804123,77.5967268,ON,-0.89919,-0.02894,9.9131,0.001176,0.00096,-0.001297,38.961,54.4824
2025-01-15T06:01:11.900Z,71.9,12.9804137,77.596736,15.047,38.961,12.9804164,77.596739,ON,-0.8647,-0.00659,9.85735,0.000799,-0.00096,-0.000624,38.961,54.1692
2025-01-15T06:01:12.000Z,72.0,12.9804241,77.5967447,14.96,38.961,12.9804156,77.5967477,ON,-0.87549,0.07748,9.63157,0.000339,0.001186,-0.001397,38.961,53.856
2025-01-15T06:01:12.099Z,72.1,12.9804345,77.5967533,14.873,38.961,12.980437,77.5967547,ON,-0.84352,-0.01167,9.49232,0.000162,0.000188,-0.001462,38.961,53.5428
2025-01-15T06:01:12.200Z,72.2,12.9804449,77.5967619,14.786,38.961,12.9804382,77.5967645,ON,-0.85018,0.07896,9.72935,0.002371,3.4e-05,-0.000993,38.961,53.2296
2025-01-15T06:01:12.299Z,72.3,12.9804551,77.5967704,14.699,38.961,12.9804576,77.5967748,ON,-0.89626,0.07852,9.81188,-0.002466,-0.002277,0.002144,38.961,52.9164
2025-01-15T06:01:12.400Z,72.4,12.9804653,77.5967789,14.612,38.961,12.9804626,77.5967793,ON,-0.8647,-0.00562,9.90794,-0.000964,-0.002219,-0.004603,38.961,52.6032
2025-01-15T06:01:12.500Z,72.5,12.9804755,77.5967873,14.525,38.961,12.9804749,77.596786,ON,-0.80809,-0.03521,9.91232,-0.000578,0.003441,-0.001947,38.961,52.29
2025-01-15T06:01:12.599Z,72.6,12.9804856,77.5967957,14.438,38.961,12.9804836,77.5967991,ON,-0.81058,0.0422,9.67649,0.002177,-1.9e-05,-0.003256,38.961,51.9768
2025-01-15T06:01:12.700Z,72.7,12.9804956,77.596804,14.351,38.961,12.9804928,77.5968023,ON,-0.90996,0.0653,9.86369,0.002279,-0.00176,-0.00334,38.961,51.6636
2025-01-15T06:01:12.799Z,72.8,12.9805056,77.5968123,14.264,38.961,12.9805078,77.5968124,ON,-0.82684,0.03301,9.82559,0.001602,0.000153,0.00041,38.961,51.3504
2025-01-15T06:01:12.900Z,72.9,12.9805155,77.5968205,14.177,38.961,12.9805254,77.5968269,ON,-0.9226,-0.0791,9.94573,-0.000873,-0.000263,-0.000976,38.961,51.0372
2025-01-15T06:01:13.000Z,73.0,12.9805253,77.5968286,14.09,38.961,12.9805269,77.5968266,ON,-0.92952,-0.08925,9.57081,-0.002108,0.002449,-0.001875,38.961,50.724
2025-01-15T06:01:13.099Z,73.1,12.9805351,77.5968368,14.003,38.961,12.980535,77.5968424,ON,-0.80431,-0.02785,9.88113,-0.000751,-0.003877,0.001915,38.961,50.4108
2025-01-15T06:01:13.200Z,73.2,12.9805448,77.5968448,13.916,38.961,12.9805454,77.5968404,ON,-0.8597,0.01668,9.82665,-0.001936,-0.000349,0.000611,38.961,50.0976
2025-01-15T06:01:13.299Z,73.3,12.9805545,77.5968528,13.829,38.961,12.9805582,77.5968518,ON,-0.92416,0.02122,9.9337,-0.001191,0.001012,0.002097,38.961,49.7844
2025-01-15T06:01:13.400Z,73.4,12.9805641,77.5968608,13.742,38.961,12.9805694,77.5968675,ON,-0.85583,0.07039,9.94523,-0.001655,0.00062,0.00047,38.961,49.4712
2025-01-15T06:01:13.500Z,73.5,12.9805736,77.5968687,13.655,38.961,12.9805702,77.5968671,ON,-0.9704,0.03552,9.89489,0.002302,0.002697,-0.00121,38.961,49.158
2025-01-15T06:01:13.599Z,73.6,12.9805831,77.5968766,13.568,38.961,12.9805823,77.5968843,ON,-0.81602,-0.03688,9.57396,-0.000458,-0.002137,0.000125,38.961,48.8448
2025-01-15T06:01:13.700Z,73.7,12.9805925,77.5968844,13.481,38.961,12.9805973,77.5968772,ON,-0.85626,-0.06079,10.05824,0.000103,0.00095,-0.002088,38.961,48.5316
2025-01-15T06:01:13.799Z,73.8,12.9806018,77.5968922,13.394,38.961,12.9805912,77.5968874,ON,-0.91784,0.05863,9.69524,0.001654,0.000843,-0.000223,38.961,48.2184
2025-01-15T06:01:13.900Z,73.9,12.9806111,77.5968999,13.307,38.961,12.9805987,77.5968971,ON,-0.82146,0.02687,9.82496,-0.002874,0.000252,0.000507,38.961,47.9052
2025-01-15T06:01:14.000Z,74.0,12.9806204,77.5969075,13.22,38.961,12.9806179,77.5969097,ON,-0.90551,-0.10039,9.74568,-0.001381,0.002438,0.001439,38.961,47.592
2025-01-15T06:01:14.099Z,74.1,12.9806296,77.5969152,13.133,38.961,12.9806293,77.5969124,ON,-0.84209,0.07471,9.71329,-0.001278,0.002302,0.000962,38.961,47.2788
2025-01-15T06:01:14.200Z,74.2,12.9806387,77.5969227,13.046,38.961,12.9806365,77.5969285,ON,-0.84242,-0.04714,9.83747,-1.4e-05,0.003305,0.001215,38.961,46.9656
2025-01-15T06:01:14.299Z,74.3,12.9806477,77.5969302,12.959,38.961,12.9806501,77.5969309,ON,-0.84395,-0.06946,9.66456,0.000779,0.000799,-0.000807,38.961,46.6524
2025-01-15T06:01:14.400Z,74.4,12.9806567,77.5969377,12.872,38.961,12.9806467,77.5969323,ON,-0.84311,0.00634,9.74586,-0.001858,0.000533,-0.000302,38.961,46.3392
2025-01-15T06:01:14.500Z,74.5,12.9806656,77.5969451,12.785,38.961,12.9806648,77.5969426,ON,-0.86249,0.01414,9.74737,0.003325,-0.001178,0.000333,38.961,46.026
2025-01-15T06:01:14.599Z,74.6,12.9806745,77.5969525,12.698,38.961,12.9806668,77.5969475,ON,-0.82398,0.03632,9.83147,-0.001345,0.000707,-0.001986,38.961,45.7128
2025-01-15T06:01:14.700Z,74.7,12.9806833,77.5969598,12.611,38.961,12.9806887,77.5969466,ON,-0.88925,-0.03986,9.93949,-0.000396,0.002475,0.002891,38.961,45.3996
2025-01-15T06:01:14.799Z,74.8,12.9806921,77.596967,12.524,38.961,12.9806943,77.5969588,ON,-0.90769,-0.02496,9.85005,0.000759,-0.002659,0.001569,38.961,45.0864
2025-01-15T06:01:14.900Z,74.9,12.9807008,77.5969742,12.437,38.961,12.9806957,77.5969725,ON,-0.85713,-0.00649,9.96689,0.002279,-0.002638,-0.002251,38.961,44.7732
2025-01-15T06:01:15.000Z,75.0,12.9807094,77.5969814,12.35,38.961,12.9807151,77.596982,ON,-0.83858,0.00125,9.93306,0.001543,0.001573,-0.001353,38.961,44.46
2025-01-15T06:01:15.099Z,75.1,12.9807179,77.5969885,12.263,38.961,12.980721,77.5969805,ON,-0.88204,-0.03177,9.73233,-0.001874,-0.004015,0.002477,38.961,44.1468
2025-01-15T06:01:15.200Z,75.2,12.9807264,77.5969956,12.176,38.961,12.9807254,77.5969947,ON,-0.84494,0.05326,9.94368,-0.000863,0.000376,-0.001811,38.961,43.8336
2025-01-15T06:01:15.299Z,75.3,12.9807349,77.5970026,12.089,38.961,12.9807386,77.5970027,ON,-0.82454,0.04137,9.88817,0.001072,0.000174,-0.002485,38.961,43.5204
2025-01-15T06:01:15.400Z,75.4,12.9807433,77.5970095,12.002,38.961,12.9807449,77.5970179,ON,-0.8917,-0.03387,9.87181,0.003349,-0.002082,-0.004832,38.961,43.2072
2025-01-15T06:01:15.500Z,75.5,12.9807516,77.5970164,11.915,38.961,12.9807485,77.5970169,ON,-0.87714,-0.01301,9.75973,-0.001294,-0.001654,0.00072,38.961,42.894
2025-01-15T06:01:15.599Z,75.6,12.9807599,77.5970233,11.828,38.961,12.9807627,77.5970154,ON,-0.7909,0.02208,9.8654,-0.000566,0.00051,-0.002247,38.961,42.5808
2025-01-15T06:01:15.700Z,75.7,12.9807681,77.5970301,11.741,38.961,12.980776,77.5970372,ON,-0.88198,-0.06594,9.77942,0.001183,-0.000788,-0.001591,38.961,42.2676
2025-01-15T06:01:15.799Z,75.8,12.9807762,77.5970369,11.654,38.961,12.980777,77.5970325,ON,-0.80324,0.04728,9.87638,-0.001416,0.000414,0.002219,38.961,41.9544
2025-01-15T06:01:15.900Z,75.9,12.9807843,77.5970436,11.567,38.961,12.9807738,77.5970446,ON,-0.79969,0.09058,9.71494,0.000552,0.002089,0.002412,38.961,41.6412
2025-01-15T06:01:16.000Z,76.0,12.9807923,77.5970502,11.48,38.961,12.9807831,77.5970402,ON,-0.86229,0.02492,9.79754,-0.000656,0.002556,0.002955,38.961,41.328
2025-01-15T06:01:16.099Z,76.1,12.9808003,77.5970568,11.393,38.961,12.9807973,77.5970576,ON,-0.92784,0.08677,9.66958,-0.00214,-0.00178,-0.002097,38.961,41.0148
2025-01-15T06:01:16.200Z,76.2,12.9808082,77.5970634,11.306,38.961,12.9808145,77.597075,ON,-0.85697,-0.0168,9.88217,-0.001814,0.002676,-7.3e-05,38.961,40.7016
2025-01-15T06:01:16.299Z,76.3,12.980816,77.5970699,11.219,38.961,12.9808181,77.5970664,ON,-0.88022,-0.08098,9.81187,0.001781,-0.003703,-0.00202,38.961,40.3884
2025-01-15T06:01:16.400Z,76.4,12.9808238,77.5970763,11.132,38.961,12.9808214,77.5970748,ON,-0.87451,-0.00225,9.83837,-7.1e-05,-0.003364,0.000627,38.961,40.0752
2025-01-15T06:01:16.500Z,76.5,12.9808315,77.5970827,11.045,38.961,12.9808375,77.597084,ON,-0.95867,0.01162,9.85753,-0.001979,0.000152,0.002553,38.961,39.762
2025-01-15T06:01:16.599Z,76.6,12.9808391,77.5970891,10.958,38.961,12.9808472,77.5970897,ON,-0.84463,-0.00826,9.76902,0.00277,0.001925,0.001234,38.961,39.4488
2025-01-15T06:01:16.700Z,76.7,12.9808467,77.5970954,10.871,38.961,12.9808441,77.5971027,ON,-0.81798,-0.06458,9.91886,0.000337,0.000557,-0.004034,38.961,39.1356
2025-01-15T06:01:16.799Z,76.8,12.9808543,77.5971016,10.784,38.961,12.9808469,77.5971066,ON,-0.90835,0.04062,9.67728,-0.00295,0.003822,0.001819,38.961,38.8224
2025-01-15T06:01:16.900Z,76.9,12.9808617,77.5971078,10.697,38.961,12.9808611,77.597109,ON,-0.90543,0.0178,9.92794,-0.000831,0.000971,-0.003384,38.961,38.5092
2025-01-15T06:01:17.000Z,77.0,12.9808691,77.597114,10.61,38.961,12.9808782,77.597119,ON,-0.8715,-0.01672,9.9511,-0.00101,0.00074,-0.000628,38.961,38.196
2025-01-15T06:01:17.099Z,77.1,12.9808765,77.5971201,10.523,38.961,12.9808719,77.5971253,ON,-0.89061,0.02321,9.77527,-0.000269,-0.000342,-0.00131,38.961,37.8828
2025-01-15T06:01:17.200Z,77.2,12.9808838,77.5971261,10.436,38.961,12.9808875,77.5971257,ON,-0.82686,0.03734,9.93223,-0.000983,0.001327,-0.000349,38.961,37.5696
2025-01-15T06:01:17.299Z,77.3,12.980891,77.5971321,10.349,38.961,12.9808909,77.5971286,ON,-0.89372,0.03151,9.7758,-0.001459,0.001697,0.000714,38.961,37.2564
2025-01-15T06:01:17.400Z,77.4,12.9808982,77.5971381,10.262,38.961,12.9808921,77.5971386,ON,-0.81359,0.05481,9.75628,-0.002221,-0.000731,0.002688,38.961,36.9432
2025-01-15T06:01:17.500Z,77.5,12.9809053,77.597144,10.175,38.961,12.980909,77.5971325,ON,-0.82706,-0.11089,10.00326,0.001691,-0.000789,0.000214,38.961,36.63
2025-01-15T06:01:17.599Z,77.6,12.9809123,77.5971498,10.088,38.961,12.9809156,77.5971474,ON,-0.84682,-0.00648,9.78492,0.00305,-0.004078,9.4e-05,38.961,36.3168
2025-01-15T06:01:17.700Z,77.7,12.9809193,77.5971556,10.001,38.961,12.9809124,77.5971547,ON,-0.90541,0.12731,9.75858,-0.000274,-0.001237,0.001779,38.961,36.0036
2025-01-15T06:01:17.799Z,77.8,12.9809262,77.5971614,9.914,38.961,12.9809237,77.5971581,ON,-0.77648,0.03905,9.8369,0.004825,-0.001266,-0.001625,38.961,35.6904
2025-01-15T06:01:17.900Z,77.9,12.9809331,77.5971671,9.827,38.961,12.9809291,77.5971731,ON,-0.90094,0.05951,9.74706,-0.003629,-0.001603,0.000574,38.961,35.3772
2025-01-15T06:01:18.000Z,78.0,12.9809399,77.5971727,9.74,38.961,12.9809459,77.5971792,ON,-0.85168,0.0342,9.54556,0.000525,7.7e-05,-0.000618,38.961,35.064
2025-01-15T06:01:18.099Z,78.1,12.9809467,77.5971783,9.653,38.961,12.9809433,77.5971827,ON,-0.81304,0.09823,9.79052,-0.001592,0.00377,-0.000641,38.961,34.7508
2025-01-15T06:01:18.200Z,78.2,12.9809533,77.5971839,9.566,38.961,12.9809507,77.5971769,ON,-0.84899,0.03028,9.89436,0.000446,0.001088,0.001109,38.961,34.4376
2025-01-15T06:01:18.299Z,78.3,12.98096,77.5971893,9.479,38.961,12.9809625,77.5971952,ON,-0.82738,0.00944,9.75628,0.001606,-0.001154,-0.000295,38.961,34.1244
2025-01-15T06:01:18.400Z,78.4,12.9809665,77.5971948,9.392,38.961,12.9809629,77.5972055,ON,-0.91856,0.0332,9.87763,0.001752,-7.9e-05,0.000168,38.961,33.8112
2025-01-15T06:01:18.500Z,78.5,12.980973,77.5972002,9.305,38.961,12.980972,77.5971866,ON,-0.90821,0.0682,9.72837,0.00027,0.005275,-0.001936,38.961,33.498
2025-01-15T06:01:18.599Z,78.6,12.9809795,77.5972055,9.218,38.961,12.9809769,77.5972043,ON,-0.96992,-0.04341,9.66713,0.001088,-0.000494,-0.004265,38.961,33.1848
2025-01-15T06:01:18.700Z,78.7,12.9809858,77.5972108,9.131,38.961,12.9809899,77.5972157,ON,-0.88808,0.04734,9.86874,-0.001829,0.000562,0.000369,38.961,32.8716
2025-01-15T06:01:18.799Z,78.8,12.9809922,77.5972161,9.044,38.961,12.980988,77.5972109,ON,-0.8496,0.11534,9.80627,0.000421,-0.002109,-0.000519,38.961,32.5584
2025-01-15T06:01:18.900Z,78.9,12.9809984,77.5972213,8.957,38.961,12.9809974,77.5972194,ON,-0.90279,-0.00243,9.7537,0.002483,0.0041,-0.001523,38.961,32.2452
2025-01-15T06:01:19.000Z,79.0,12.9810046,77.5972264,8.87,38.961,12.9810028,77.5972286,ON,-0.84085,-0.03817,9.75292,0.001173,-0.003277,0.00443,38.961,31.932
2025-01-15T06:01:19.099Z,79.1,12.9810107,77.5972315,8.783,38.961,12.9810123,77.59723,ON,-0.87752,-0.05367,9.99025,-0.000168,-0.00087,0.003514,38.961,31.6188
2025-01-15T06:01:19.200Z,79.2,12.9810168,77.5972365,8.696,38.961,12.981022,77.5972356,ON,-0.84819,-0.01661,9.77378,-0.000442,0.000595,0.00219,38.961,31.3056
2025-01-15T06:01:19.299Z,79.3,12.9810228,77.5972415,8.609,38.961,12.9810327,77.5972307,ON,-0.75388,0.05122,9.81165,-0.00086,-0.003736,0.002389,38.961,30.9924
2025-01-15T06:01:19.400Z,79.4,12.9810288,77.5972465,8.522,38.961,12.9810233,77.5972497,ON,-0.89074,-0.08129,9.85184,0.000973,-0.001872,0.001719,38.961,30.6792
2025-01-15T06:01:19.500Z,79.5,12.9810347,77.5972513,8.435,38.961,12.9810437,77.5972538,ON,-0.84843,-0.03669,9.70606,-0.000812,0.000138,2.3e-05,38.961,30.366
2025-01-15T06:01:19.599Z,79.6,12.9810405,77.5972562,8.348,38.961,12.9810395,77.5972686,ON,-0.84144,-0.04882,9.68994,-0.003477,-0.002019,0.001157,38.961,30.0528
2025-01-15T06:01:19.700Z,79.7,12.9810463,77.597261,8.261,38.961,12.9810449,77.5972575,ON,-0.84052,0.02746,9.84714,-2.6e-05,-7.3e-05,-0.002637,38.961,29.7396
2025-01-15T06:01:19.799Z,79.8,12.981052,77.5972657,8.174,38.961,12.9810428,77.5972617,ON,-0.90943,-0.04095,9.79268,-0.000948,-0.002609,-0.000206,38.961,29.4264
2025-01-15T06:01:19.900Z,79.9,12.9810576,77.5972704,8.087,38.961,12.9810593,77.5972679,ON,-0.82905,0.01577,9.84894,-0.000747,0.000827,0.001365,38.961,29.1132
2025-01-15T06:01:20.000Z,80.0,12.9810632,77.597275,8.0,38.961,12.9810536,77.5972804,ON,-0.89556,0.03253,9.57937,-0.000868,-0.003398,-0.000297,38.961,28.8
2025-01-15T06:01:20.099Z,80.1,12.9810688,77.5972796,7.92,38.961,12.9810697,77.5972817,ON,-0.79897,-0.06263,9.94027,-0.002691,-0.000673,-0.001553,38.961,28.512
2025-01-15T06:01:20.200Z,80.2,12.9810742,77.5972842,7.84,38.961,12.9810712,77.5972772,ON,-0.74572,0.03731,9.81716,-0.000289,-0.00192,-0.00022,38.961,28.224
2025-01-15T06:01:20.299Z,80.3,12.9810797,77.5972887,7.76,38.961,12.9810751,77.5972891,ON,-0.78031,-0.01236,9.8499,0.001167,0.001609,0.00395,38.961,27.936
